Sample, Time, ACCX, ACCY, ACCZ, MAGX, MAGY, MAGZ, GYRX, GYRY, GYRZ
0,35697.229000,202.933,25.098,146.432,366.929,-203.446,333.152,-239.780,375.400,-99.060
1,35697.269000,203.916,20.078,145.408,365.064,-202.380,342.124,-233.780,373.400,-90.060
2,35697.309000,202.933,20.078,150.528,359.308,-207.990,340.007,-244.780,385.400,-102.060
3,35697.349000,199.002,17.067,161.792,357.450,-206.066,346.013,-219.780,342.400,-98.060
4,35697.389000,195.071,18.071,163.840,352.646,-211.606,346.882,-175.780,267.400,-112.060
5,35697.408000,190.157,20.078,164.864,353.675,-205.999,351.976,-131.780,207.400,-101.060
6,35697.448000,191.140,24.094,164.864,349.879,-206.946,352.945,-44.780,182.400,-100.060
7,35697.488000,188.192,31.122,163.840,349.812,-212.345,357.803,-24.780,127.400,-79.060
8,35697.529000,183.278,34.133,163.840,347.061,-205.969,357.935,14.220,99.400,-61.060
9,35697.568000,191.140,45.176,162.816,344.222,-206.007,357.930,36.220,89.400,-39.060
10,35697.621000,183.278,49.192,165.888,343.292,-205.064,359.938,47.220,99.400,-8.060
11,35697.647000,180.330,48.188,168.960,340.459,-205.024,363.913,44.220,106.400,12.940
12,35697.667000,182.296,49.192,167.936,339.468,-208.642,366.819,28.220,87.400,21.940
13,35697.709000,184.261,49.192,167.936,341.367,-208.539,370.802,1.220,96.400,29.940
14,35697.751000,183.278,47.184,171.008,337.540,-211.396,367.752,-14.780,99.400,37.940
15,35697.791000,183.278,48.188,167.936,335.711,-206.821,368.841,-42.780,57.400,37.940
16,35697.838000,180.330,43.169,167.936,332.845,-208.710,367.802,-84.780,31.400,50.940
17,35697.871000,182.296,41.161,169.984,334.729,-209.562,369.776,-81.780,9.400,54.940
18,35697.891000,187.209,43.169,167.936,332.831,-209.646,366.788,-79.780,-5.600,32.940
19,35697.931000,183.278,36.141,168.960,332.740,-216.098,364.661,-139.780,6.400,33.940
20,35697.971000,183.278,34.133,169.984,328.936,-217.142,360.654,-170.780,-8.600,18.940
21,35698.12000,183.278,33.129,168.960,329.692,-230.911,358.373,-174.780,-6.600,4.940
22,35698.52000,184.261,27.106,171.008,328.745,-230.923,358.372,-200.780,-4.600,-6.060
23,35698.92000,186.226,23.090,174.080,331.640,-226.383,354.494,-218.780,0.400,-20.060
24,35698.132000,186.226,19.075,173.056,328.659,-236.556,351.289,-230.780,6.400,-32.060
25,35698.152000,186.226,15.059,175.104,327.784,-231.111,349.414,-238.780,11.400,-29.060
26,35698.194000,179.347,9.035,172.032,327.618,-243.060,347.171,-241.780,-15.600,-20.060
27,35698.227000,175.417,5.020,171.008,325.706,-244.079,343.167,-266.780,-32.600,-8.060
28,35698.267000,188.192,-1.004,175.104,324.753,-244.170,339.186,-261.780,-40.600,14.940
29,35698.312000,190.157,-1.004,176.128,328.418,-252.463,334.041,-281.780,-37.600,11.940
30,35698.352000,187.209,-5.020,176.128,326.417,-259.914,328.907,-292.780,-24.600,12.940
31,35698.372000,188.192,-8.031,176.128,326.403,-260.850,327.892,-267.780,-27.600,-9.060
32,35698.429000,190.157,-6.024,168.960,326.284,-268.394,316.790,-235.780,-27.600,-27.060
33,35698.448000,186.226,-10.039,169.984,327.212,-270.135,320.733,-236.780,-22.600,-32.060
34,35698.488000,189.175,-10.039,169.984,329.111,-269.272,316.776,-206.780,-25.600,-30.060
35,35698.528000,188.192,-12.047,167.936,327.122,-275.808,311.661,-168.780,-6.600,-22.060
36,35698.568000,190.157,-14.055,168.960,327.149,-273.956,312.695,-116.780,20.400,-5.060
37,35698.610000,191.140,-18.071,173.056,328.069,-275.795,311.662,-98.780,20.400,5.940
38,35698.630000,186.226,-16.063,172.032,326.213,-273.072,311.717,-90.780,14.400,14.940
39,35698.672000,187.209,-17.067,173.056,328.885,-285.003,308.484,-81.780,25.400,20.940
40,35698.707000,187.209,-18.071,172.032,324.253,-277.736,308.631,-57.780,20.400,15.940
41,35698.747000,188.192,-21.082,169.984,324.166,-284.149,308.495,-22.780,20.400,19.940
42,35698.787000,187.209,-24.094,171.008,327.077,-279.414,314.568,-9.780,41.400,25.940
43,35698.827000,183.278,-25.098,169.984,325.094,-285.891,312.438,13.220,47.400,27.940
44,35698.847000,185.244,-24.094,171.008,325.126,-283.201,309.511,34.220,54.400,18.940
45,35698.887000,184.261,-29.114,172.032,324.257,-277.697,310.621,45.220,52.400,14.940
46,35698.927000,184.261,-31.122,172.032,326.168,-276.678,314.625,74.220,58.400,-2.060
47,35698.967000,187.209,-30.118,177.152,324.287,-276.566,321.587,89.220,73.400,-11.060
48,35699.7000,187.209,-27.106,176.128,325.250,-275.599,323.598,119.220,83.400,-29.060
49,35699.47000,184.261,-19.075,179.200,322.423,-274.720,323.612,166.220,119.400,-88.060
50,35699.93000,182.296,-19.075,176.128,320.616,-269.131,329.696,200.220,142.400,-123.060
51,35699.113000,182.296,-16.063,175.104,322.643,-259.828,335.865,260.220,174.400,-128.060
52,35699.153000,177.382,-9.035,178.176,319.869,-256.025,344.894,308.220,205.400,-137.060
53,35699.193000,176.399,-1.004,179.200,321.881,-247.677,349.053,341.220,212.400,-137.060
54,35699.233000,173.451,2.008,180.224,321.939,-244.694,361.052,386.220,200.400,-112.060
55,35699.273000,167.555,10.039,190.464,321.165,-232.680,367.275,437.220,210.400,-110.060
56,35699.308000,166.572,19.075,189.440,321.417,-215.098,376.601,460.220,160.400,-101.060
57,35699.330000,162.641,30.118,190.464,319.636,-207.657,383.719,458.220,125.400,-101.060
58,35699.370000,164.607,54.212,191.488,319.789,-197.404,392.889,450.220,115.400,-120.060
59,35699.410000,163.624,65.255,189.440,326.636,-181.625,399.203,391.220,63.400,-136.060
60,35699.450000,159.693,73.286,184.320,321.937,-179.758,404.209,355.220,28.400,-137.060
61,35699.490000,150.848,78.306,181.248,324.842,-175.100,406.302,310.220,16.400,-129.060
62,35699.531000,152.814,84.329,182.272,327.872,-161.282,408.590,225.220,-4.600,-129.060
63,35699.578000,154.779,85.333,183.296,325.938,-164.094,406.538,143.220,-19.600,-116.060
64,35699.591000,153.797,82.322,184.320,332.733,-151.999,411.778,102.220,-21.600,-94.060
65,35699.631000,156.745,83.325,185.344,332.737,-151.960,413.768,89.220,-32.600,-75.060
66,35699.680000,159.693,80.314,184.320,333.762,-145.633,408.931,81.220,-49.600,-45.060
67,35699.727000,165.589,80.314,184.320,330.839,-152.044,410.780,73.220,-57.600,-13.060
68,35699.748000,167.555,79.310,182.272,337.499,-149.228,409.855,64.220,-73.600,14.940
69,35699.788000,165.589,78.306,179.200,334.685,-147.433,409.889,39.220,-112.600,40.940
70,35699.810000,169.520,73.286,180.224,338.442,-149.254,407.867,0.220,-104.600,95.940
71,35699.850000,167.555,63.247,176.128,340.342,-148.371,404.904,-15.780,-98.600,134.940
72,35699.890000,170.503,60.235,174.080,339.246,-159.378,404.668,-17.780,-85.600,137.940
73,35699.931000,176.399,61.239,175.104,340.184,-159.463,399.695,-30.780,-86.600,118.940
74,35699.973000,171.486,55.216,176.128,339.234,-159.514,397.703,-57.780,-75.600,107.940
75,35700.13000,170.503,53.208,175.104,338.218,-164.965,400.569,-60.780,-74.600,98.940
76,35700.53000,173.451,53.208,176.128,335.435,-160.500,396.682,-56.780,-62.600,80.940
77,35700.73000,176.399,51.200,176.128,341.023,-166.857,395.560,-92.780,-66.600,47.940
78,35700.113000,175.417,42.165,178.176,338.142,-169.702,392.511,-108.780,-55.600,43.940
79,35700.153000,179.347,40.157,180.224,338.050,-176.173,389.390,-97.780,-62.600,30.940
80,35700.194000,176.399,38.149,177.152,343.667,-180.659,390.297,-102.780,-83.600,37.940
81,35700.233000,176.399,32.125,178.176,341.791,-178.950,385.358,-118.780,-92.600,46.940
82,35700.268000,179.347,32.125,178.176,341.701,-185.382,384.226,-117.780,-93.600,36.940
83,35700.308000,178.365,30.118,177.152,343.536,-189.119,379.176,-117.780,-76.600,23.940
84,35700.328000,178.365,31.122,175.104,343.607,-183.661,377.303,-102.780,-55.600,2.940
85,35700.375000,178.365,33.129,176.128,346.405,-186.411,375.259,-93.780,-49.600,-30.060
86,35700.415000,181.313,32.125,173.056,345.408,-190.108,374.184,-95.780,-51.600,-44.060
87,35700.453000,182.296,30.118,175.104,347.255,-193.689,377.095,-88.780,-71.600,-49.060
88,35700.494000,181.313,31.122,178.176,349.200,-189.200,371.225,-60.780,-82.600,-51.060
89,35700.533000,179.347,33.129,175.104,349.095,-196.588,368.084,-39.780,-85.600,-50.060
90,35700.555000,182.296,34.133,175.104,357.714,-189.127,369.250,-44.780,-106.600,-40.060
91,35700.590000,183.278,35.137,174.080,352.949,-191.119,364.228,-16.780,-119.600,-33.060
92,35700.638000,180.330,36.141,173.056,357.621,-195.598,366.129,-11.780,-117.600,-28.060
93,35700.670000,181.313,35.137,171.008,358.686,-186.503,362.345,-3.780,-124.600,-28.060
94,35700.718000,184.261,40.157,166.912,362.479,-185.595,359.386,17.220,-117.600,-33.060
95,35700.752000,185.244,39.153,164.864,364.298,-191.047,360.267,24.220,-116.600,-24.060
96,35700.792000,186.226,42.165,161.792,369.034,-190.166,355.320,25.220,-105.600,-19.060
97,35700.821000,191.140,42.165,160.768,369.129,-182.896,352.491,27.220,-100.600,-5.060
98,35700.855000,191.140,42.165,158.720,369.916,-194.754,354.229,43.220,-96.600,13.940
99,35700.895000,193.106,41.161,159.744,372.916,-182.826,353.493,44.220,-86.600,29.940
100,35700.935000,193.106,37.145,158.720,373.798,-187.414,352.402,39.220,-81.600,46.940
101,35700.980000,193.106,41.161,158.720,371.018,-182.910,350.504,72.220,-51.600,59.940
102,35701.11000,191.140,43.169,159.744,370.950,-187.549,347.421,66.220,-39.600,54.940
103,35701.31000,193.106,43.169,158.720,368.216,-180.199,350.558,65.220,-34.600,43.940
104,35701.71000,190.157,47.184,158.720,371.877,-189.310,350.369,60.220,-38.600,42.940
105,35701.111000,191.140,39.153,159.744,370.095,-181.109,349.546,102.220,-63.600,63.940
106,35701.151000,190.157,38.149,160.768,370.952,-187.529,348.416,170.220,-145.600,77.940
107,35701.191000,192.123,34.133,159.744,377.701,-178.281,348.623,217.220,-233.600,73.940
108,35701.231000,193.106,36.141,161.792,373.939,-176.518,347.661,335.220,-344.600,85.940
109,35701.271000,199.985,43.169,156.672,383.394,-176.490,342.702,388.220,-344.600,72.940
110,35701.291000,197.036,48.188,151.552,388.233,-168.241,339.901,364.220,-338.600,107.940
111,35701.331000,201.950,54.212,145.408,390.099,-170.068,338.870,303.220,-302.600,115.940
112,35701.371000,203.916,53.208,142.336,392.094,-161.915,333.079,242.220,-275.600,156.940
113,35701.420000,202.933,51.200,139.264,396.787,-164.620,332.033,192.220,-230.600,133.940
114,35701.455000,202.933,48.188,141.312,396.819,-161.930,329.107,162.220,-210.600,137.940
115,35701.495000,208.829,49.192,138.240,399.544,-170.158,327.941,121.220,-177.600,103.940
116,35701.515000,206.864,49.192,135.168,406.249,-163.735,324.109,52.220,-130.600,73.940
117,35701.555000,209.812,46.180,133.120,403.289,-172.116,318.953,57.220,-121.600,64.940
118,35701.595000,211.777,48.188,130.048,405.238,-168.348,323.015,45.220,-113.600,58.940
119,35701.635000,213.743,48.188,123.904,407.135,-167.504,318.062,30.220,-103.600,45.940
120,35701.675000,209.812,45.176,124.928,411.793,-172.919,318.949,13.220,-69.600,56.940
121,35701.715000,209.812,46.180,129.024,406.166,-169.330,319.017,-18.780,-27.600,62.940
122,35701.755000,210.795,40.157,128.000,406.145,-170.343,314.022,-28.780,-6.600,64.940
123,35701.773000,214.726,39.153,122.880,402.288,-175.851,315.888,-24.780,10.400,60.940
124,35701.815000,217.674,40.157,132.096,401.365,-174.051,314.931,-45.780,26.400,43.940
125,35701.855000,218.656,39.153,121.856,404.177,-175.865,313.902,-50.780,-3.600,35.940
126,35701.892000,221.605,40.157,119.808,401.265,-181.380,314.775,-28.780,-13.600,30.940
127,35701.932000,220.622,41.161,121.856,402.289,-175.832,316.883,-31.780,38.400,39.940
128,35701.972000,216.691,37.145,122.880,405.046,-182.149,319.737,-20.780,67.400,36.940
129,35701.992000,219.639,38.149,118.784,399.340,-184.095,317.698,-45.780,119.400,12.940
130,35702.38000,218.656,37.145,120.832,393.740,-178.634,319.795,-67.780,173.400,-8.060
131,35702.71000,215.708,45.176,129.024,391.817,-181.329,323.713,-154.780,220.400,-61.060
132,35702.112000,209.812,46.180,132.096,388.063,-179.469,327.726,-253.780,310.400,-96.060
133,35702.153000,211.777,43.169,126.976,387.097,-181.255,330.670,-267.780,411.400,-139.060
134,35702.193000,204.898,42.165,138.240,377.586,-185.785,339.512,-294.780,462.400,-124.060
135,35702.242000,201.950,35.137,140.288,375.563,-195.810,343.274,-292.780,428.400,-96.060
136,35702.256000,198.019,27.106,154.624,369.017,-190.361,345.369,-275.780,400.400,-65.060
137,35702.303000,194.088,26.102,163.840,364.205,-196.759,349.205,-170.780,310.400,-48.060
138,35702.331000,189.175,32.125,166.912,358.558,-194.923,353.214,-131.780,264.400,-48.060
139,35702.371000,188.192,27.106,167.936,352.882,-194.979,354.199,-113.780,218.400,-41.060
140,35702.411000,184.261,29.114,165.888,350.940,-199.428,362.059,-38.780,165.400,-39.060
141,35702.451000,185.244,27.106,168.960,352.833,-199.403,362.062,-32.780,125.400,-46.060
142,35702.471000,186.226,30.118,169.984,351.017,-193.912,363.171,-0.780,93.400,-60.060
143,35702.520000,183.278,31.122,171.008,349.012,-202.182,362.992,5.220,50.400,-65.060
144,35702.552000,186.226,34.133,171.008,351.970,-193.822,367.153,3.220,23.400,-68.060
145,35702.592000,185.244,38.149,169.984,353.886,-191.984,366.200,-4.780,12.400,-59.060
146,35702.632000,184.261,36.141,169.984,351.915,-197.545,364.089,0.220,-18.600,-50.060
147,35702.672000,183.278,39.153,168.960,354.870,-189.223,366.260,14.220,-31.600,-67.060
148,35702.720000,186.226,43.169,166.912,355.849,-186.521,363.335,18.220,-28.600,-74.060
149,35702.732000,184.261,40.157,165.888,353.945,-187.442,364.307,1.220,-39.600,-72.060
150,35702.772000,185.244,44.173,166.912,355.772,-192.037,362.223,3.220,-43.600,-69.060
151,35702.813000,186.226,44.173,164.864,357.766,-184.663,363.378,4.220,-48.600,-65.060
152,35702.853000,186.226,44.173,163.840,359.571,-191.051,363.244,-0.780,-33.600,-50.060
153,35702.894000,188.192,44.173,166.912,361.623,-179.156,361.511,9.220,-35.600,-21.060
154,35702.940000,187.209,43.169,161.792,361.521,-186.504,360.360,15.220,-41.600,0.940
155,35702.972000,187.209,45.176,159.744,360.605,-184.626,363.383,12.220,-49.600,20.940
156,35702.992000,190.157,48.188,160.768,361.507,-187.440,359.345,8.220,-44.600,32.940
157,35703.41000,191.140,46.180,161.792,359.654,-184.697,360.396,22.220,-33.600,36.940
158,35703.73000,191.140,46.180,156.672,361.566,-182.898,357.453,15.220,-6.600,51.940
159,35703.113000,192.123,47.184,162.816,359.600,-188.400,358.328,9.220,8.400,54.940
160,35703.162000,190.157,42.165,159.744,359.438,-200.310,358.074,7.220,1.400,59.940
161,35703.202000,188.192,41.161,161.792,357.688,-190.199,361.270,19.220,4.400,58.940
162,35703.216000,191.140,42.165,162.816,359.640,-185.632,359.381,23.220,14.400,61.940
163,35703.256000,188.192,43.169,160.768,359.525,-193.897,358.210,24.220,-9.600,61.940
164,35703.296000,191.140,44.173,161.792,355.745,-193.889,361.189,21.220,-2.600,60.940
165,35703.341000,191.140,43.169,163.840,355.758,-192.973,361.208,5.220,-5.600,64.940
166,35703.376000,190.157,46.180,164.864,360.489,-192.910,361.217,-5.780,-22.600,57.940
167,35703.417000,192.123,48.188,161.792,355.736,-194.766,363.160,-12.780,-24.600,41.940
168,35703.455000,185.244,54.212,155.648,359.568,-191.090,361.254,-32.780,-48.600,4.940
169,35703.475000,199.002,59.231,159.744,355.639,-201.296,357.053,-61.780,-9.600,-25.060
170,35703.522000,189.175,46.180,158.720,356.696,-193.058,356.235,-147.780,-6.600,-40.060
171,35703.563000,193.106,47.184,153.600,356.591,-200.445,353.094,-160.780,13.400,-109.060
172,35703.595000,201.950,41.161,156.672,355.582,-205.038,352.994,-223.780,73.400,-112.060
173,35703.635000,204.898,22.086,147.456,355.634,-201.354,354.067,-127.780,-7.600,-107.060
174,35703.675000,161.658,18.071,140.288,359.430,-200.408,353.099,-141.780,-52.600,-102.060
175,35703.695000,207.846,6.024,164.864,356.550,-203.233,351.045,-292.780,1.400,21.940
176,35703.733000,191.140,33.129,166.912,356.379,-215.240,345.816,-226.780,36.400,64.940
177,35703.773000,172.468,38.149,180.224,351.592,-219.026,342.744,-238.780,104.400,65.940
178,35703.813000,154.779,29.114,187.392,347.741,-223.695,340.650,-355.780,72.400,89.940
179,35703.855000,171.486,-8.031,162.816,344.782,-232.076,335.494,-329.780,-38.600,126.940
180,35703.895000,261.896,-30.118,168.960,347.484,-241.336,328.339,-315.780,-45.600,168.940
181,35703.935000,217.674,-38.149,160.768,346.433,-248.736,325.196,-366.780,-68.600,131.940
182,35703.955000,206.864,-50.196,190.464,344.457,-254.355,320.100,-324.780,-16.600,60.940
183,35703.993000,202.933,-25.098,169.984,347.385,-247.885,321.236,-114.780,17.400,-127.060
184,35704.33000,184.261,-18.071,163.840,347.465,-242.330,324.339,-6.780,50.400,-293.060
185,35704.73000,155.762,0.000,153.600,355.112,-236.714,325.464,103.220,-9.600,-348.060
186,35704.113000,144.952,10.039,153.600,357.921,-238.567,322.445,118.220,-96.600,-273.060
187,35704.153000,181.313,-39.153,162.816,362.781,-229.304,324.639,31.220,-58.600,-13.060
188,35704.173000,196.054,-67.263,161.792,361.877,-226.510,327.681,353.220,0.400,324.940
189,35704.222000,239.294,-27.106,160.768,355.205,-231.002,336.527,788.220,124.400,561.940
190,35704.255000,243.225,1.004,160.768,344.026,-219.847,352.662,964.220,179.400,564.940
191,35704.295000,187.209,93.365,131.072,339.434,-211.352,368.750,1020.220,153.400,298.940
192,35704.343000,186.226,125.490,147.456,337.774,-195.568,381.019,746.220,134.400,8.940
193,35704.377000,180.330,113.443,175.104,339.760,-189.052,385.139,256.220,136.400,-128.060
194,35704.421000,148.883,53.208,172.032,336.952,-187.199,388.159,34.220,93.400,-49.060
195,35704.433000,130.211,65.255,206.848,335.955,-190.876,388.079,85.220,99.400,-33.060
196,35704.473000,134.142,103.404,181.248,340.835,-179.839,387.326,88.220,-117.600,-232.060
197,35704.515000,158.710,127.498,173.056,350.318,-177.941,384.397,-164.780,-263.600,-443.060
198,35704.557000,207.846,131.514,163.840,355.047,-177.138,375.469,-524.780,-323.600,-573.060
199,35704.597000,371.962,113.443,194.560,362.599,-177.252,364.537,-835.780,160.400,-631.060
200,35704.636000,146.917,13.051,134.144,370.154,-178.107,362.541,-461.780,0.400,-427.060
201,35704.656000,99.747,33.129,139.264,373.947,-177.200,359.582,-115.780,-61.600,-336.060
202,35704.696000,230.449,42.165,177.152,373.017,-175.478,354.644,-380.780,47.400,-110.060
203,35704.738000,211.777,30.118,147.456,372.066,-175.549,351.657,-258.780,-129.600,-77.060
204,35704.777000,195.071,11.043,207.872,369.091,-185.644,352.432,-42.780,207.400,-84.060
205,35704.813000,195.071,40.157,186.368,370.098,-181.070,351.537,-189.780,146.400,-17.060
206,35704.856000,158.710,0.000,155.648,369.079,-186.560,352.413,-50.780,41.400,59.940
207,35704.902000,141.021,-34.133,149.504,362.456,-186.628,353.396,131.220,-76.600,352.940
208,35704.915000,219.639,-60.235,153.600,358.534,-197.516,361.116,572.220,2.400,587.940
209,35704.958000,162.641,-28.110,123.904,353.988,-184.635,367.351,1005.220,-68.600,627.940
210,35704.993000,247.155,75.294,179.200,341.881,-171.738,379.543,1255.220,236.400,500.940
211,35705.36000,182.296,153.600,190.464,333.537,-160.583,393.693,843.220,371.400,241.940
212,35705.75000,166.572,114.447,191.488,322.182,-161.493,401.614,287.220,299.400,112.940
213,35705.115000,148.883,70.275,174.080,326.026,-157.681,406.674,-141.780,164.400,28.940
214,35705.135000,122.349,29.114,137.216,325.987,-160.449,405.621,-238.780,-31.600,40.940
215,35705.175000,157.727,37.145,158.720,326.809,-168.818,398.481,-166.780,-127.600,79.940
216,35705.215000,181.313,30.118,154.624,327.720,-170.755,392.474,-234.780,-222.600,71.940
217,35705.255000,162.641,25.098,153.600,334.188,-181.740,388.271,-261.780,-253.600,-23.060
218,35705.297000,251.086,15.059,173.056,336.988,-183.690,380.276,-113.780,-168.600,-23.060
219,35705.345000,290.395,20.078,200.704,333.236,-181.811,385.284,-0.780,48.400,19.940
220,35705.373000,235.363,18.071,202.752,332.411,-173.480,390.433,196.220,368.400,38.940
221,35705.393000,184.261,41.161,181.248,320.063,-178.028,400.265,250.220,376.400,85.940
222,35705.433000,166.572,40.157,168.960,316.289,-177.942,407.223,236.220,283.400,161.940
223,35705.480000,142.987,48.188,163.840,308.752,-176.112,412.224,279.220,204.400,167.940
224,35705.513000,160.676,57.224,168.960,307.907,-169.555,420.320,198.220,94.400,115.940
225,35705.560000,175.417,29.114,175.104,306.097,-163.226,417.468,89.220,13.400,108.940
226,35705.595000,143.969,46.180,186.368,306.962,-169.548,421.313,239.220,27.400,58.940
227,35705.635000,157.727,79.310,169.984,306.196,-156.676,424.570,250.220,-52.600,-117.060
228,35705.655000,178.365,67.263,166.912,311.923,-152.177,416.717,-43.780,-189.600,-209.060
229,35705.696000,178.365,68.267,153.600,320.415,-153.897,416.693,-38.780,-267.600,-182.060
230,35705.738000,176.399,68.267,158.720,320.444,-151.246,411.776,60.220,-197.600,-100.060
231,35705.778000,195.071,79.310,153.600,323.314,-148.538,407.859,120.220,-187.600,-72.060
232,35705.825000,185.244,84.329,154.624,329.974,-145.722,406.935,58.220,-148.600,-74.060
233,35705.855000,186.226,82.322,155.648,333.788,-143.021,402.025,-150.780,-134.600,-94.060
234,35705.875000,185.244,72.282,154.624,334.629,-150.396,398.885,-254.780,-95.600,-73.060
235,35705.915000,189.175,64.251,160.768,335.478,-156.913,392.780,-342.780,29.400,22.940
236,35705.960000,193.106,51.200,165.888,330.617,-166.956,397.532,-291.780,89.400,92.940
237,35706.6000,169.520,39.153,183.296,329.680,-166.091,395.560,-196.780,127.400,126.940
238,35706.40000,183.278,46.180,185.344,322.952,-174.326,400.348,-116.780,165.400,137.940
239,35706.80000,184.261,54.212,168.960,322.934,-175.301,397.343,-77.780,95.400,75.940
240,35706.142000,168.537,51.200,175.104,317.205,-179.060,396.260,-54.780,-0.600,44.940
241,35706.150000,161.658,57.224,172.032,320.994,-178.971,398.257,-84.780,-92.600,-47.060
242,35706.176000,185.244,69.271,166.912,325.728,-178.109,392.314,-217.780,-91.600,-103.060
243,35706.216000,188.192,62.243,162.816,328.416,-189.066,392.085,-355.780,-6.600,-145.060
244,35706.257000,174.434,49.192,148.480,327.432,-191.066,384.084,-406.780,28.400,-112.060
245,35706.296000,174.434,34.133,151.552,322.561,-201.226,382.866,-536.780,137.400,-57.060
246,35706.336000,177.382,16.063,165.888,319.639,-206.858,377.768,-551.780,243.400,42.940
247,35706.356000,167.555,17.067,199.680,312.840,-219.771,377.483,-410.780,360.400,44.940
248,35706.397000,160.676,5.020,205.824,308.072,-222.563,378.412,-332.780,265.400,95.940
249,35706.437000,185.244,-12.047,208.896,300.364,-232.740,378.184,-179.780,123.400,90.940
250,35706.480000,179.347,-1.004,162.816,301.350,-229.960,379.239,-78.780,-60.600,25.940
251,35706.520000,161.658,0.000,197.632,299.402,-233.708,376.172,-110.780,-125.600,-77.060
252,35706.560000,186.226,0.000,195.584,304.109,-234.698,369.196,-151.780,-74.600,-86.060
253,35706.600000,187.209,8.031,187.392,306.981,-231.971,366.274,-113.780,-63.600,-94.060
254,35706.620000,184.261,13.051,185.344,305.944,-238.435,364.146,-23.780,-46.600,-111.060
255,35706.660000,179.347,26.102,181.248,307.938,-231.061,365.300,-92.780,-81.600,-98.060
256,35706.697000,174.434,17.067,175.104,312.658,-231.136,358.343,-109.780,-137.600,-90.060
257,35706.740000,162.641,21.082,177.152,315.459,-233.846,358.290,-80.780,-154.600,-77.060
258,35706.780000,177.382,18.071,181.248,316.335,-238.512,353.218,-100.780,-158.600,-2.060
259,35706.820000,215.708,23.090,154.624,318.174,-242.191,351.154,-127.780,-155.600,51.940
260,35706.838000,183.278,33.129,145.408,321.914,-244.987,346.126,-181.780,-142.600,-6.060
261,35706.877000,186.226,21.082,168.960,325.634,-248.777,337.100,-238.780,-134.600,-109.060
262,35706.918000,173.451,-4.016,182.272,330.425,-244.173,335.215,-400.780,-13.600,-131.060
263,35706.961000,183.278,-15.059,193.536,330.299,-253.334,335.020,-285.780,54.400,-153.060
264,35706.996000,179.347,-4.016,185.344,324.682,-248.848,334.113,-133.780,48.400,-59.060
265,35707.36000,190.157,-1.004,176.128,324.638,-251.674,330.074,-87.780,6.400,-43.060
266,35707.76000,164.607,5.020,165.888,328.424,-251.624,330.081,31.220,-53.600,-69.060
267,35707.96000,165.589,-1.004,163.840,332.248,-248.807,331.141,113.220,-152.600,11.940
268,35707.136000,156.745,-2.008,152.576,331.222,-254.374,328.037,185.220,-166.600,103.940
269,35707.176000,134.142,-7.027,154.624,334.051,-255.214,330.013,364.220,-196.600,213.940
270,35707.216000,200.967,18.071,162.816,330.390,-246.882,337.147,497.220,-99.600,303.940
271,35707.256000,221.605,52.204,167.936,333.243,-245.909,338.167,393.220,-118.600,306.940
272,35707.296000,240.276,58.227,197.632,325.750,-240.493,339.265,92.220,-17.600,131.940
273,35707.316000,259.931,37.145,218.112,325.712,-243.241,339.207,-84.780,111.400,-2.060
274,35707.356000,220.622,15.059,192.512,327.667,-238.635,339.308,12.220,133.400,-194.060
275,35707.396000,149.866,16.063,159.744,330.522,-237.643,341.322,-5.780,28.400,-205.060
276,35707.437000,171.486,22.086,162.816,333.372,-236.709,340.352,-115.780,-42.600,-183.060
277,35707.477000,195.071,16.063,179.200,333.283,-243.141,339.220,-252.780,7.400,-123.060
278,35707.517000,170.503,14.055,185.344,330.410,-245.108,334.201,-172.780,57.400,-72.060
279,35707.557000,160.676,-15.059,161.792,330.473,-240.528,334.298,85.220,-47.600,116.940
280,35707.577000,161.658,-18.071,164.864,329.441,-246.934,335.155,214.220,-103.600,263.940
281,35707.617000,153.797,1.004,157.696,328.598,-239.578,337.300,329.220,-189.600,288.940
282,35707.657000,201.950,17.067,166.912,328.509,-246.011,336.168,334.220,-181.600,171.940
283,35707.702000,197.036,8.031,158.720,330.490,-239.553,337.303,210.220,-135.600,72.940
284,35707.736000,199.985,19.075,149.504,331.501,-234.940,338.397,118.220,-169.600,-85.060
285,35707.796000,220.622,14.055,169.984,336.237,-234.059,333.450,-108.780,-56.600,-203.060
286,35707.805000,216.691,10.039,163.840,332.485,-231.400,331.512,-162.780,-34.600,-194.060
287,35707.837000,203.916,14.055,175.104,343.880,-228.482,332.585,-97.780,62.400,-130.060
288,35707.877000,190.157,13.051,163.840,342.795,-238.592,331.374,-38.780,33.400,-97.060
289,35707.917000,178.365,3.012,148.480,342.898,-231.223,333.520,1.220,-22.600,-75.060
290,35707.956000,184.261,-15.059,147.456,343.832,-232.127,333.502,-0.780,-25.600,10.940
291,35707.996000,184.261,-14.055,158.720,343.809,-233.940,334.458,130.220,-1.600,87.940
292,35708.36000,187.209,-13.051,157.696,339.200,-225.640,340.596,364.220,0.400,139.940
293,35708.56000,195.071,0.000,172.032,341.086,-226.453,344.560,484.220,93.400,145.940
294,35708.96000,195.071,17.067,177.152,339.357,-215.328,352.751,486.220,117.400,63.940
295,35708.142000,198.019,31.122,181.248,334.600,-218.003,359.650,401.220,147.400,-114.060
296,35708.181000,176.399,34.133,162.816,338.659,-198.577,367.032,385.220,61.400,-190.060
297,35708.221000,181.313,35.137,149.504,339.657,-194.881,368.106,313.220,39.400,-136.060
298,35708.268000,185.244,42.165,141.312,341.749,-180.977,375.368,386.220,72.400,-57.060
299,35708.302000,174.434,45.176,135.168,340.897,-174.499,379.483,473.220,63.400,14.940
300,35708.322000,191.140,65.255,168.960,338.175,-167.012,389.585,574.220,238.400,67.940
301,35708.362000,190.157,90.353,159.744,331.698,-156.905,395.758,532.220,148.400,26.940
302,35708.410000,190.157,74.290,174.080,335.602,-148.532,399.921,205.220,150.400,-13.060
303,35708.437000,184.261,55.216,191.488,328.997,-147.625,403.909,-0.780,99.400,14.940
304,35708.477000,188.192,47.184,191.488,330.840,-151.264,403.834,-0.780,100.400,32.940
305,35708.520000,175.417,53.208,185.344,328.037,-148.573,402.892,57.220,15.400,-18.060
306,35708.546000,164.607,55.216,159.744,328.942,-151.348,400.845,195.220,-72.600,-87.060
307,35708.577000,190.157,69.271,125.952,333.859,-138.342,407.097,204.220,-163.600,-103.060
308,35708.617000,182.296,67.263,140.288,338.600,-137.403,405.135,159.220,-140.600,-81.060
309,35708.677000,184.261,70.275,180.224,338.745,-126.468,402.384,186.220,-59.600,33.940
310,35708.697000,174.434,73.286,179.200,337.777,-128.274,404.334,21.220,-15.600,98.940
311,35708.737000,185.244,73.286,174.080,339.608,-132.810,405.234,-133.780,23.400,81.940
312,35708.777000,173.451,57.224,162.816,337.712,-132.874,403.241,-147.780,-77.600,40.940
313,35708.797000,173.451,59.231,158.720,339.484,-141.191,398.093,-303.780,-112.600,2.940
314,35708.842000,166.572,53.208,126.976,345.104,-144.879,393.050,-258.780,-294.600,-82.060
315,35708.877000,180.330,54.212,128.000,353.525,-151.277,387.953,-185.780,-293.600,-189.060
316,35708.917000,181.313,65.255,142.336,360.206,-146.667,385.077,12.220,-192.600,-300.060
317,35708.957000,199.002,75.294,157.696,363.103,-142.107,382.195,77.220,-90.600,-278.060
318,35709.2000,209.812,78.306,168.960,365.197,-127.405,383.505,-53.780,24.400,-313.060
319,35709.22000,203.916,94.369,173.056,368.011,-129.199,383.471,-56.780,89.400,-231.060
320,35709.62000,194.088,74.290,166.912,364.352,-119.309,376.714,-12.780,-21.600,-156.060
321,35709.102000,181.313,78.306,165.888,367.177,-120.967,383.645,131.220,-103.600,-80.060
322,35709.142000,166.572,97.380,151.552,370.099,-114.575,380.802,224.220,-224.600,-107.060
323,35709.182000,173.451,109.427,164.864,377.714,-110.869,377.908,135.220,-232.600,-110.060
324,35709.222000,178.365,121.475,157.696,381.575,-104.543,371.086,54.220,-246.600,-103.060
325,35709.257000,206.864,116.455,171.008,382.447,-110.027,370.970,-92.780,-171.600,-112.060
326,35709.277000,235.363,106.416,172.032,389.114,-106.353,367.080,-242.780,-77.600,-111.060
327,35709.320000,255.017,96.376,150.528,388.136,-108.276,363.059,-317.780,10.400,-155.060
328,35709.362000,255.017,70.275,165.888,386.113,-118.300,366.821,-404.780,160.400,-198.060
329,35709.406000,94.833,46.180,126.976,389.868,-120.141,363.804,-346.780,-60.600,-193.060
330,35709.440000,158.710,-1.004,199.680,385.967,-128.475,361.631,-755.780,156.400,-36.060
331,35709.478000,143.969,3.012,194.560,384.010,-133.100,360.535,-239.780,32.400,9.940
332,35709.498000,65.351,-15.059,129.024,380.045,-146.035,357.270,-171.780,-54.600,233.940
333,35709.540000,204.898,21.082,156.672,382.940,-141.495,353.392,30.220,-65.600,413.940
334,35709.580000,210.795,88.345,137.216,381.906,-147.920,353.254,279.220,-324.600,292.940
335,35709.620000,248.138,61.239,166.912,384.765,-146.109,350.313,298.220,-157.600,439.940
336,35709.660000,216.691,98.384,122.880,379.101,-145.248,351.318,297.220,-73.600,211.940
337,35709.700000,201.950,88.345,129.024,379.926,-154.358,353.114,118.220,132.400,121.940
338,35709.747000,192.123,74.290,144.384,374.359,-146.967,360.226,63.220,220.400,95.940
339,35709.762000,189.175,67.263,150.528,370.497,-153.313,366.053,36.220,285.400,74.940
340,35709.801000,183.278,68.267,144.384,363.904,-151.490,370.060,-74.780,192.400,75.940
341,35709.841000,176.399,88.345,150.528,359.162,-152.450,371.028,-137.780,147.400,12.940
342,35709.881000,168.537,108.424,153.600,361.947,-156.116,368.964,-298.780,67.400,-127.060
343,35709.921000,176.399,112.439,164.864,358.969,-166.250,367.750,-473.780,79.400,-181.060
344,35709.960000,193.106,88.345,165.888,359.751,-177.407,358.562,-737.780,-9.600,-98.060
345,35709.981000,201.950,49.192,156.672,359.542,-192.162,353.274,-788.780,-74.600,-3.060
346,35710.21000,199.002,8.031,143.360,364.082,-205.121,343.059,-702.780,-138.600,129.940
347,35710.61000,156.745,0.000,131.072,362.035,-215.419,332.890,-523.780,-295.600,163.940
348,35710.101000,199.002,1.004,175.104,363.777,-225.627,324.718,-497.780,-249.600,176.940
349,35710.141000,232.415,-19.075,185.344,360.823,-233.169,315.602,-439.780,-131.600,220.940
350,35710.188000,220.622,-7.027,200.704,359.778,-239.732,308.498,-280.780,-25.600,180.940
351,35710.221000,204.898,14.055,199.680,357.835,-243.421,308.417,-171.780,128.400,88.940
352,35710.250000,159.693,21.082,151.552,358.720,-247.210,301.375,-220.780,-211.600,34.940
353,35710.283000,167.555,-1.004,129.024,359.598,-251.836,298.294,-224.780,-349.600,71.940
354,35710.325000,240.276,-17.067,122.880,360.339,-265.781,287.057,-218.780,-310.600,263.940
355,35710.363000,197.036,-2.008,133.120,361.311,-263.156,280.152,-71.780,-239.600,240.940
356,35710.403000,205.881,-2.008,138.240,361.145,-275.105,277.908,-109.780,-123.600,198.940
357,35710.448000,211.777,-23.090,160.768,353.462,-283.450,277.719,-149.780,18.400,185.940
358,35710.461000,199.985,-36.141,161.792,353.557,-276.180,274.890,-38.780,90.400,116.940
359,35710.501000,196.054,-37.145,157.696,350.602,-285.281,279.665,93.220,185.400,114.940
360,35710.541000,194.088,-15.059,165.888,343.166,-276.103,285.817,298.220,137.400,47.940
361,35710.581000,175.417,-6.024,150.528,345.133,-271.360,292.884,349.220,34.400,-17.060
362,35710.621000,174.434,-8.031,146.432,348.900,-273.064,296.832,441.220,-61.600,-21.060
363,35710.663000,126.280,7.027,126.976,346.155,-266.611,300.943,517.220,-164.600,25.940
364,35710.702000,205.881,-1.004,148.480,347.258,-255.527,305.159,434.220,-57.600,174.940
365,35710.723000,297.274,53.208,147.456,347.286,-253.656,307.189,423.220,-101.600,115.940
366,35710.763000,272.706,33.129,220.160,346.422,-248.093,311.284,-117.780,176.400,-44.060
367,35710.808000,222.587,16.063,179.200,347.301,-252.720,308.203,-179.780,97.400,-342.060
368,35710.841000,183.278,8.031,144.384,352.093,-248.096,307.314,-121.780,14.400,-309.060
369,35710.881000,183.278,-4.016,147.456,348.400,-241.675,310.429,-36.780,-27.600,-81.060
370,35710.921000,178.365,10.039,161.792,355.955,-242.530,308.433,173.220,-94.600,-29.060
371,35710.961000,190.157,29.114,182.272,355.971,-241.575,310.443,131.220,-18.600,-74.060
372,35710.987000,188.192,-2.008,161.792,356.869,-245.207,311.361,122.220,-77.600,1.940
373,35711.20000,178.365,-8.031,132.096,356.013,-238.768,313.486,344.220,-182.600,156.940
374,35711.68000,196.054,-1.004,120.832,356.010,-238.807,311.496,373.220,-306.600,308.940
375,35711.101000,190.157,11.043,121.856,360.785,-235.158,307.602,100.220,-299.600,245.940
376,35711.141000,207.846,5.020,143.360,362.576,-242.481,306.454,136.220,-263.600,227.940
377,35711.181000,257.965,-19.075,146.432,358.860,-237.093,303.580,161.220,-135.600,243.940
378,35711.201000,279.585,56.220,147.456,358.894,-235.163,308.594,484.220,12.400,138.940
379,35711.247000,214.726,68.267,122.880,359.868,-234.059,317.571,480.220,-63.600,84.940
380,35711.281000,142.987,37.145,194.560,353.320,-228.630,318.671,237.220,179.400,48.940
381,35711.322000,138.073,19.075,172.032,352.368,-229.481,322.630,-28.780,216.400,105.940
382,35711.370000,104.660,39.153,164.864,353.291,-231.281,323.588,-13.780,-30.600,-134.060
383,35711.402000,155.762,70.275,135.168,360.807,-234.125,313.592,-543.780,-180.600,-279.060
384,35711.442000,214.726,-2.008,108.544,366.390,-239.781,301.544,-417.780,-300.600,-141.060
385,35711.462000,260.914,41.161,130.048,369.283,-235.260,296.672,-227.780,-298.600,-169.060
386,35711.502000,242.242,-62.243,98.304,366.359,-240.911,290.579,-191.780,-317.600,69.940
387,35711.540000,262.879,29.114,144.384,369.253,-237.151,293.647,189.220,112.400,-21.060
388,35711.581000,262.879,2.008,126.976,370.185,-238.074,292.635,-0.780,14.400,35.940
389,35711.621000,213.743,11.043,129.024,369.239,-238.086,292.633,-73.780,83.400,40.940
390,35711.662000,201.950,10.039,137.216,367.371,-236.279,292.669,-73.780,148.400,45.940
391,35711.682000,204.898,-7.027,139.264,361.593,-244.463,299.448,-75.780,168.400,119.940
392,35711.722000,197.036,-12.047,140.288,359.691,-245.365,301.416,63.220,143.400,152.940
393,35711.765000,201.950,-23.090,153.600,352.047,-250.942,302.280,11.220,161.400,125.940
394,35711.805000,202.933,-36.141,149.504,352.143,-244.432,307.392,119.220,83.400,146.940
395,35711.847000,201.950,-51.200,144.384,347.279,-254.513,310.154,275.220,40.400,173.940
396,35711.881000,219.639,-47.184,136.192,346.458,-246.124,318.289,637.220,59.400,183.940
397,35711.920000,204.898,-33.129,107.520,343.830,-232.147,332.507,823.220,77.400,135.940
398,35711.950000,220.622,21.082,128.000,341.226,-216.356,345.770,1157.220,154.400,48.940
399,35711.982000,188.192,53.208,158.720,337.758,-194.984,364.123,1067.220,225.400,-55.060
400,35712.22000,218.656,66.259,181.248,338.926,-180.059,377.373,815.220,334.400,-127.060
401,35712.61000,211.777,62.243,165.888,336.258,-168.090,382.597,644.220,227.400,-156.060
402,35712.108000,195.071,53.208,151.552,334.509,-158.739,393.734,571.220,143.400,-180.060
403,35712.141000,180.330,58.227,143.360,338.552,-140.268,399.106,540.220,-89.600,-224.060
404,35712.161000,186.226,66.259,137.216,340.545,-132.914,399.266,491.220,-140.600,-249.060
405,35712.201000,171.486,85.333,128.000,352.229,-108.906,401.783,649.220,-186.600,-262.060
406,35712.241000,215.708,91.357,111.616,355.227,-96.998,400.052,382.220,-232.600,-250.060
407,35712.281000,203.916,79.310,97.280,362.816,-95.143,396.124,403.220,-188.600,-175.060
408,35712.330000,211.777,78.306,126.976,361.172,-76.865,395.516,515.220,-77.600,-102.060
409,35712.365000,212.760,105.412,152.576,363.208,-66.685,399.714,347.220,-31.600,-28.060
410,35712.403000,199.985,110.431,151.552,361.316,-66.710,399.711,90.220,41.400,-26.060
411,35712.431000,182.296,103.404,121.856,366.041,-66.725,395.739,-201.780,-79.600,-33.060
412,35712.466000,169.520,89.349,116.736,365.966,-72.222,395.622,-440.780,-186.600,-103.060
413,35712.517000,157.727,77.302,106.496,374.327,-82.402,384.477,-593.780,-328.600,-151.060
414,35712.541000,151.831,73.286,98.304,379.924,-87.122,373.443,-723.780,-389.600,-227.060
415,35712.581000,163.624,83.325,105.472,392.989,-99.091,361.272,-702.780,-431.600,-283.060
416,35712.622000,253.052,79.310,120.832,394.712,-110.294,349.101,-1009.780,-268.600,-306.060
417,35712.642000,287.447,74.290,138.240,404.228,-105.705,343.245,-575.780,-64.600,-303.060
418,35712.682000,301.205,94.369,167.936,402.315,-107.504,346.188,-231.780,187.400,-181.060
419,35712.732000,252.069,84.329,147.456,395.735,-104.765,350.215,145.220,247.400,45.940
420,35712.766000,220.622,91.357,137.216,391.003,-105.607,357.152,344.220,270.400,122.940
421,35712.808000,204.898,104.408,106.496,386.334,-101.849,365.182,351.220,134.400,149.940
422,35712.842000,183.278,100.392,115.712,386.275,-106.390,367.075,352.220,73.400,205.940
423,35712.882000,176.399,65.255,121.856,382.597,-99.033,371.205,336.220,29.400,283.940
424,35712.902000,176.399,71.278,134.144,380.621,-105.413,374.050,278.220,75.400,330.940
425,35712.941000,162.641,67.263,148.480,380.653,-103.502,378.069,74.220,45.400,256.940
426,35712.981000,158.710,72.282,160.768,375.773,-114.539,378.822,-107.780,97.400,125.940
427,35713.26000,189.175,84.329,136.192,374.872,-110.945,375.913,-278.780,-53.600,-4.060
428,35713.61000,199.985,66.259,126.976,374.801,-115.624,370.840,-260.780,-62.600,-74.060
429,35713.110000,205.881,81.318,143.360,380.440,-118.317,369.796,-234.780,-59.600,-70.060
430,35713.127000,224.553,80.314,137.216,381.292,-124.795,365.681,-375.780,-106.600,-57.060
431,35713.166000,210.795,88.345,154.624,384.048,-130.352,360.594,-461.780,-48.600,-46.060
432,35713.207000,209.812,96.376,149.504,379.097,-146.067,356.273,-514.780,-51.600,-37.060
433,35713.260000,196.054,83.325,124.928,378.988,-153.493,351.142,-676.780,-60.600,-55.060
434,35713.282000,192.123,65.255,115.712,384.558,-160.845,346.021,-818.780,-38.600,-30.060
435,35713.322000,187.209,56.220,113.664,381.461,-178.523,333.704,-901.780,-107.600,-71.060
436,35713.362000,171.486,16.063,119.808,381.302,-188.854,320.554,-1052.780,-92.600,-21.060
437,35713.382000,175.417,15.059,163.840,385.819,-203.626,311.294,-939.780,-133.600,-20.060
438,35713.431000,203.916,2.008,168.960,383.813,-211.136,303.174,-736.780,3.400,59.940
439,35713.466000,220.622,1.004,167.936,378.907,-223.245,295.947,-565.780,76.400,104.940
440,35713.516000,232.415,23.090,178.176,377.868,-229.729,292.824,-411.780,-10.600,72.940
441,35713.545000,217.674,26.102,157.696,378.665,-239.930,285.645,-379.780,-148.600,53.940
442,35713.582000,211.777,7.027,118.784,378.635,-241.061,274.680,-386.780,-258.600,104.940
443,35713.607000,209.812,-13.051,99.328,384.223,-246.659,265.617,-363.780,-323.600,198.940
444,35713.643000,224.553,-8.031,89.088,383.074,-260.589,256.368,-241.780,-309.600,204.940
445,35713.682000,202.933,19.075,98.304,384.017,-259.836,247.433,-339.780,-334.600,-12.060
446,35713.723000,211.777,-1.004,143.360,385.826,-264.645,234.403,-528.780,-176.600,-43.060
447,35713.763000,204.898,-5.020,144.384,387.555,-275.770,226.212,-416.780,-156.600,-35.060
448,35713.807000,225.536,-13.051,145.408,388.547,-272.151,223.306,-132.780,-8.600,82.940
449,35713.845000,225.536,-34.133,137.216,392.319,-273.017,223.294,24.220,-90.600,148.940
450,35713.865000,226.518,-30.118,130.048,385.622,-278.582,224.160,284.220,-134.600,126.940
451,35713.905000,212.760,-19.075,119.808,386.648,-273.014,227.264,349.220,-154.600,102.940
452,35713.945000,213.743,-8.031,118.784,386.655,-272.936,231.244,354.220,-125.600,69.940
453,35713.985000,200.967,-2.008,100.352,389.572,-267.363,233.356,287.220,-98.600,13.940
454,35714.25000,181.313,9.035,104.448,391.422,-270.145,230.316,156.220,-44.600,-36.060
455,35714.73000,152.814,10.039,102.400,390.520,-267.331,234.353,124.220,-12.600,-90.060
456,35714.82000,198.019,14.055,104.448,391.588,-258.196,232.560,89.220,-44.600,9.940
457,35714.122000,294.326,31.122,103.424,390.618,-260.021,233.514,171.220,-89.600,86.940
458,35714.162000,290.395,44.173,129.024,388.722,-260.086,231.521,-239.780,92.400,-14.060
459,35714.208000,282.534,10.039,174.080,387.714,-264.679,231.421,-362.780,180.400,-48.060
460,35714.243000,252.069,-9.035,148.480,382.975,-264.819,227.433,-306.780,121.400,-96.060
461,35714.283000,239.294,-16.063,137.216,382.883,-271.291,224.311,-240.780,88.400,32.940
462,35714.323000,210.795,-21.082,131.072,381.879,-275.825,227.197,-192.780,72.400,52.940
463,35714.343000,208.829,-14.055,132.096,383.720,-279.484,226.127,-223.780,60.400,-15.060
464,35714.385000,209.812,-8.031,137.216,381.847,-277.736,223.178,-149.780,43.400,2.940
465,35714.423000,206.864,-24.094,125.952,382.740,-281.427,221.111,-26.780,43.400,48.940
466,35714.465000,202.933,-19.075,117.760,379.961,-277.683,227.155,109.220,14.400,58.940
467,35714.511000,199.985,-7.027,128.000,378.065,-277.747,225.161,33.220,6.400,10.940
468,35714.542000,204.898,-2.008,130.048,381.799,-281.381,224.095,-58.780,-10.600,-34.060
469,35714.563000,210.795,-23.090,125.952,378.894,-286.038,222.002,-133.780,-29.600,-18.060
470,35714.603000,218.656,-44.173,133.120,383.562,-290.576,220.918,-105.780,-11.600,32.940
471,35714.643000,218.656,-41.161,119.808,380.776,-286.910,222.981,143.220,-76.600,66.940
472,35714.683000,216.691,-39.153,121.856,383.676,-282.311,222.088,331.220,-66.600,80.940
473,35714.723000,230.449,-16.063,132.096,381.797,-282.180,230.046,463.220,-27.600,18.940
474,35714.763000,214.726,2.008,131.072,385.717,-272.851,236.218,418.220,-0.600,-103.060
475,35714.812000,233.397,-1.004,134.144,385.827,-265.405,242.344,410.220,31.400,-72.060
476,35714.825000,227.501,9.035,121.856,388.721,-261.645,245.412,293.220,-1.600,-67.060
477,35714.865000,205.881,17.067,132.096,391.680,-253.264,250.568,298.220,-16.600,-83.060
478,35714.903000,191.140,27.106,146.432,389.720,-258.708,254.428,208.220,78.400,-48.060
479,35714.943000,188.192,30.118,128.000,393.663,-247.567,259.644,230.220,6.400,-1.060
480,35714.985000,199.002,34.133,126.976,388.024,-244.874,260.688,202.220,62.400,-22.060
481,35715.26000,211.777,28.110,133.120,388.042,-243.899,263.693,127.220,82.400,-66.060
482,35715.78000,219.639,16.063,124.928,390.895,-242.926,264.712,61.220,81.400,-54.060
483,35715.87000,238.311,4.016,126.976,390.873,-244.719,266.663,9.220,85.400,-25.060
484,35715.128000,224.553,-1.004,131.072,389.123,-234.608,269.860,117.220,58.400,-61.060
485,35715.168000,240.276,3.012,141.312,390.067,-235.395,275.812,227.220,92.400,-46.060
486,35715.210000,224.553,2.008,130.048,392.049,-228.937,276.947,347.220,87.400,-65.060
487,35715.243000,202.933,-3.012,122.880,386.456,-223.398,283.025,421.220,65.400,-47.060
488,35715.283000,202.933,-33.129,113.664,388.444,-216.863,288.140,344.220,1.400,-6.060
489,35715.308000,222.587,-31.122,110.592,387.510,-216.739,295.104,459.220,46.400,37.940
490,35715.355000,214.726,-12.047,105.472,387.723,-201.925,303.376,748.220,92.400,23.940
491,35715.391000,221.605,-6.024,117.760,388.849,-189.807,313.582,921.220,152.400,-47.060
492,35715.431000,200.967,57.224,112.640,389.995,-176.676,328.783,1101.220,120.400,-211.060
493,35715.463000,225.536,109.427,148.480,390.387,-148.997,339.319,932.220,225.400,-258.060
494,35715.508000,196.054,112.439,161.792,387.789,-132.349,349.616,656.220,244.400,-280.060
495,35715.545000,199.002,113.443,148.480,383.260,-118.494,358.856,462.220,197.400,-201.060
496,35715.565000,201.950,101.396,141.312,386.095,-119.275,363.816,191.220,64.400,-98.060
497,35715.605000,175.417,79.310,123.904,388.097,-111.044,362.005,-4.780,-46.600,-19.060
498,35715.645000,196.054,67.263,126.976,393.571,-125.666,359.713,-127.780,-135.600,25.940
499,35715.685000,199.002,69.271,119.808,392.745,-116.576,356.921,-187.780,-120.600,5.940
500,35715.723000,209.812,62.243,120.832,394.556,-122.125,352.827,-90.780,-79.600,-20.060
501,35715.767000,241.259,62.243,130.048,397.445,-118.423,352.910,-62.780,-78.600,-65.060
502,35715.795000,243.225,63.247,126.976,397.543,-111.114,352.071,121.220,36.400,-87.060
503,35715.828000,228.484,68.267,123.904,397.513,-113.784,355.993,274.220,117.400,-72.060
504,35715.868000,212.760,96.376,119.808,392.016,-100.955,360.237,311.220,97.400,-53.060
505,35715.905000,208.829,102.400,112.640,393.958,-98.045,367.264,228.220,65.400,-36.060
506,35715.945000,199.985,96.376,125.952,392.094,-96.199,369.290,282.220,91.400,5.940
507,35715.985000,198.019,89.349,123.904,390.187,-97.160,368.272,236.220,85.400,90.940
508,35716.25000,201.950,76.298,126.976,386.546,-87.054,372.460,293.220,104.400,164.940
509,35716.45000,191.140,81.318,133.120,384.608,-90.685,375.364,386.220,119.400,166.940
510,35716.95000,196.054,95.373,136.192,383.736,-85.980,382.425,248.220,72.400,137.940
511,35716.128000,198.019,101.396,137.216,380.876,-87.811,384.371,178.220,92.400,70.940
512,35716.168000,170.503,100.392,156.672,376.217,-82.396,383.485,16.220,81.400,5.940
513,35716.216000,166.572,87.341,147.456,375.204,-87.048,380.400,-395.780,-71.600,0.940
514,35716.250000,209.812,99.388,148.480,380.757,-96.134,380.215,-516.780,-159.600,-58.060
515,35716.270000,236.345,91.357,137.216,385.320,-107.280,369.044,-599.780,-208.600,-133.060
516,35716.310000,272.706,66.259,145.408,386.195,-111.946,363.973,-605.780,-130.600,-203.060
517,35716.360000,230.449,39.153,146.432,390.768,-122.974,358.771,-504.780,-120.600,-258.060
518,35716.395000,116.453,58.227,89.088,397.420,-120.256,352.871,-268.780,-269.600,-269.060
519,35716.427000,144.952,43.169,142.336,403.129,-117.510,348.960,-512.780,-105.600,-196.060
520,35716.470000,103.678,-8.031,146.432,401.997,-130.466,342.714,-232.780,-19.600,155.940
521,35716.510000,45.697,-9.035,111.616,397.307,-127.741,344.755,253.220,26.400,450.940
522,35716.530000,263.862,45.176,103.424,393.371,-138.784,344.514,179.220,-114.600,408.940
523,35716.565000,334.618,81.318,117.760,399.003,-141.555,339.490,-175.780,-321.600,141.940
524,35716.605000,286.464,65.255,136.192,399.036,-138.866,336.563,-66.780,-77.600,14.940
525,35716.660000,287.447,86.337,135.168,401.848,-140.680,335.534,75.220,-6.600,-73.060
526,35716.686000,228.484,65.255,116.736,400.952,-137.028,335.611,-14.780,25.400,-81.060
527,35716.726000,197.036,56.220,123.904,403.832,-134.203,337.664,-88.780,84.400,-79.060
528,35716.746000,198.019,51.200,129.024,399.077,-136.078,338.612,-4.780,57.400,-78.060
529,35716.787000,187.209,49.192,123.904,400.944,-137.885,338.576,9.220,37.400,-96.060
530,35716.827000,186.226,70.275,143.360,402.867,-135.970,341.604,74.220,42.400,-130.060
531,35716.867000,193.106,104.408,134.144,402.017,-128.692,339.768,-68.780,-110.600,-210.060
532,35716.907000,205.881,109.427,122.880,413.365,-128.640,334.813,-239.780,-180.600,-269.060
533,35716.947000,211.777,105.412,126.976,414.289,-129.660,328.825,-336.780,-195.600,-231.060
534,35716.987000,204.898,103.404,121.856,416.184,-128.836,322.877,-346.780,-150.600,-120.060
535,35717.7000,195.071,97.380,120.832,411.356,-135.409,317.757,-366.780,-89.600,29.940
536,35717.47000,209.812,75.294,112.640,411.271,-141.023,311.670,-431.780,-43.600,215.940
537,35717.95000,213.743,52.204,112.640,409.160,-157.460,315.295,-302.780,139.400,234.940
538,35717.127000,182.296,44.173,105.472,402.458,-163.084,313.176,-228.780,189.400,207.940
539,35717.165000,191.140,49.192,124.928,396.697,-169.513,316.015,-327.780,164.400,79.940
540,35717.213000,206.864,37.145,152.576,393.729,-178.771,312.830,-412.780,167.400,84.940
541,35717.226000,215.708,35.137,152.576,392.734,-182.428,313.745,-477.780,136.400,161.940
542,35717.266000,232.415,29.114,165.888,382.046,-202.760,311.307,-536.780,189.400,204.940
543,35717.306000,220.622,15.059,160.768,378.218,-205.617,308.257,-426.780,174.400,188.940
544,35717.351000,202.933,3.012,150.528,374.281,-216.680,307.021,-234.780,123.400,191.940
545,35717.391000,201.950,4.016,142.336,375.170,-221.189,309.910,13.220,35.400,182.940
546,35717.431000,206.864,10.039,131.072,370.426,-222.168,309.882,174.220,-45.600,171.940
547,35717.470000,210.795,9.035,136.192,367.623,-219.477,308.941,148.220,-35.600,158.940
548,35717.490000,209.812,27.106,139.264,364.647,-229.592,308.721,24.220,-13.600,112.940
549,35717.528000,197.036,24.094,134.144,364.678,-227.681,312.740,-71.780,13.400,64.940
550,35717.570000,188.192,-2.008,131.072,365.650,-225.836,312.781,-29.780,31.400,133.940
551,35717.608000,168.537,-2.008,130.048,362.648,-237.784,312.522,108.220,27.400,241.940
552,35717.651000,233.397,6.024,146.432,353.243,-234.147,317.559,90.220,125.400,305.940
553,35717.691000,250.104,10.039,137.216,349.383,-239.693,317.435,58.220,144.400,306.940
554,35717.728000,225.536,21.082,172.032,341.824,-239.657,324.387,-79.780,236.400,68.940
555,35717.748000,211.777,23.090,166.912,342.710,-244.205,325.286,-125.780,175.400,-85.060
556,35717.791000,190.157,7.027,159.744,340.817,-244.230,325.283,-258.780,137.400,-123.060
557,35717.830000,194.088,-2.008,169.984,337.900,-249.804,323.171,-252.780,140.400,-89.060
558,35717.871000,193.106,3.012,168.960,338.868,-247.998,321.221,-106.780,135.400,-24.060
559,35717.913000,196.054,5.020,160.768,335.984,-251.642,324.124,46.220,99.400,10.940
560,35717.946000,194.088,13.051,153.600,333.123,-253.472,326.070,116.220,28.400,18.940
561,35717.966000,199.002,7.027,137.216,330.295,-252.613,325.089,25.220,-43.600,66.940
562,35718.6000,195.071,11.043,138.240,333.183,-248.931,324.177,-166.780,-19.600,27.940
563,35718.46000,198.019,4.016,153.600,331.244,-251.802,319.140,-254.780,-25.600,11.940
564,35718.87000,202.933,-6.024,166.912,333.066,-256.455,314.070,-315.780,15.400,2.940
565,35718.127000,202.933,-15.059,159.744,329.118,-268.415,313.810,-285.780,41.400,74.940
566,35718.168000,201.950,-20.078,158.720,327.171,-272.163,310.744,-210.780,15.400,129.940
567,35718.208000,199.002,-29.114,156.672,326.249,-270.343,310.781,-118.780,-37.600,117.940
568,35718.228000,192.123,-21.082,154.624,323.223,-284.122,310.483,23.220,-52.600,116.940
569,35718.268000,198.019,-16.063,161.792,325.251,-274.039,309.706,101.220,-31.600,100.940
570,35718.308000,199.985,-22.086,174.080,323.284,-279.561,309.586,48.220,-7.600,29.940
571,35718.348000,199.985,-23.090,161.792,324.233,-279.510,311.577,120.220,-33.600,-13.060
572,35718.388000,196.054,-25.098,160.768,327.226,-268.440,313.807,217.220,-42.600,-13.060
573,35718.428000,175.417,-30.118,158.720,324.429,-265.670,316.845,320.220,-47.600,55.940
574,35718.448000,206.864,-31.122,150.528,324.480,-262.766,324.864,446.220,-69.600,109.940
575,35718.488000,201.950,-11.043,141.312,327.424,-255.340,328.011,412.220,42.400,36.940
576,35718.531000,208.829,-12.047,142.336,326.527,-252.468,335.033,496.220,88.400,-16.060
577,35718.576000,200.967,-6.024,163.840,326.642,-244.963,344.145,459.220,222.400,-107.060
578,35718.617000,199.002,2.008,135.168,328.764,-229.169,354.430,547.220,159.400,-113.060
579,35718.652000,196.054,11.043,144.384,325.070,-223.527,364.491,564.220,190.400,-71.060
580,35718.692000,176.399,34.133,156.672,324.420,-203.131,377.855,677.220,223.400,-51.060
581,35718.711000,199.002,77.302,189.440,317.979,-191.074,390.037,742.220,299.400,-19.060
582,35718.757000,179.347,59.231,185.344,316.196,-183.653,396.161,549.220,183.400,50.940
583,35718.791000,189.175,52.204,179.200,311.587,-175.353,402.298,411.220,25.400,45.940
584,35718.831000,188.192,59.231,144.384,319.288,-166.034,405.492,487.220,-141.600,45.940
585,35718.871000,198.019,66.259,135.168,320.291,-162.278,409.552,413.220,-176.600,8.940
586,35718.925000,196.054,61.239,141.312,326.140,-149.417,407.845,421.220,-228.600,-57.060
587,35718.937000,200.967,100.392,131.072,329.042,-144.798,407.948,301.220,-240.600,-144.060
588,35718.967000,183.278,95.373,122.880,338.493,-144.810,400.999,-55.780,-249.600,-248.060
589,35719.7000,171.486,89.349,128.000,347.086,-138.421,394.185,-405.780,-202.600,-268.060
590,35719.48000,179.347,67.263,124.928,349.788,-147.682,387.029,-556.780,-198.600,-249.060
591,35719.88000,184.261,61.239,143.360,356.289,-155.956,380.895,-560.780,-108.600,-257.060
592,35719.128000,198.019,64.251,154.624,354.362,-157.931,374.882,-705.780,-10.600,-259.060
593,35719.176000,230.449,19.075,157.696,358.062,-163.495,368.802,-564.780,13.400,-214.060
594,35719.190000,224.553,31.122,177.152,353.279,-167.241,367.720,-356.780,146.400,-169.060
595,35719.237000,209.812,29.114,180.224,357.041,-169.004,368.683,-217.780,163.400,-72.060
596,35719.270000,206.864,45.176,168.960,352.228,-175.401,372.518,-80.780,187.400,-5.060
597,35719.310000,192.123,41.161,156.672,348.486,-172.644,375.555,-15.780,189.400,47.940
598,35719.350000,182.296,48.188,149.504,346.532,-177.231,376.449,229.220,115.400,133.940
599,35719.391000,174.434,43.169,146.432,344.639,-178.035,383.392,301.220,120.400,218.940
600,35719.412000,176.399,40.157,160.768,340.091,-165.174,388.632,268.220,93.400,224.940
601,35719.453000,186.226,37.145,171.008,336.274,-167.894,392.547,277.220,74.400,112.940
602,35719.493000,189.175,52.204,172.032,335.402,-163.190,399.608,289.220,58.400,28.940
603,35719.528000,188.192,67.263,165.888,335.465,-158.609,399.706,328.220,-85.600,-53.060
604,35719.573000,183.278,65.255,161.792,341.277,-148.496,397.941,262.220,-156.600,-37.060
605,35719.607000,183.278,72.282,145.408,344.102,-149.394,396.931,272.220,-195.600,-48.060
606,35719.647000,183.278,79.310,141.312,349.937,-137.468,394.210,52.220,-226.600,-72.060
607,35719.667000,189.175,86.337,144.384,357.358,-147.582,387.043,-103.780,-233.600,-120.060
608,35719.707000,210.795,90.353,131.072,358.414,-139.363,385.230,-195.780,-197.600,-182.060
609,35719.748000,209.812,79.310,141.312,360.325,-137.584,381.292,-68.780,-92.600,-191.060
610,35719.788000,194.088,105.412,155.648,361.249,-139.364,383.245,-87.780,7.400,-198.060
611,35719.830000,196.054,89.349,148.480,359.328,-141.261,381.212,-146.780,63.400,-29.060
612,35719.870000,181.313,75.294,146.432,359.239,-147.693,380.081,-152.780,84.400,23.940
613,35719.890000,164.607,75.294,144.384,355.420,-150.453,382.006,-77.780,93.400,33.940
614,35719.936000,193.106,63.247,154.624,354.270,-165.162,379.702,-398.780,152.400,53.940
615,35719.968000,201.950,63.247,162.816,344.820,-164.371,379.704,-477.780,257.400,35.940
616,35720.8000,173.451,35.137,147.456,337.047,-179.149,378.384,-454.780,211.400,19.940
617,35720.50000,150.848,38.149,136.192,335.135,-180.947,381.327,-372.780,204.400,-39.060
618,35720.92000,193.106,51.200,163.840,327.363,-195.725,380.006,-644.780,386.400,7.940
619,35720.130000,182.296,11.043,185.344,319.675,-204.129,376.832,-594.780,425.400,102.940
620,35720.156000,183.278,28.110,193.536,311.050,-212.428,379.626,-447.780,497.400,69.940
621,35720.192000,166.572,15.059,169.984,302.423,-220.766,380.431,-478.780,541.400,-1.060
622,35720.228000,175.417,-7.027,166.912,288.046,-234.637,383.098,-508.780,607.400,-45.060
623,35720.285000,187.209,-2.008,173.056,278.547,-237.491,384.018,-520.780,622.400,-84.060
624,35720.311000,155.762,-9.035,171.008,263.284,-246.813,385.786,-397.780,654.400,-108.060
625,35720.351000,151.831,-4.016,195.584,258.478,-253.133,393.602,-419.780,680.400,-84.060
626,35720.371000,149.866,0.000,209.920,250.791,-262.297,398.369,-318.780,491.400,-108.060
627,35720.411000,145.935,3.012,215.040,246.040,-263.353,394.361,-194.780,224.400,-53.060
628,35720.451000,141.021,-1.004,210.944,240.414,-259.744,395.424,-139.780,65.400,-18.060
629,35720.492000,140.038,12.047,221.184,241.304,-263.474,391.367,-110.780,94.400,-45.060
630,35720.533000,142.987,19.075,224.256,239.450,-260.731,392.417,-112.780,98.400,-122.060
631,35720.573000,129.228,25.098,214.016,238.363,-270.860,390.211,-290.780,51.400,-135.060
632,35720.608000,127.263,1.004,222.208,241.119,-276.417,385.124,-387.780,65.400,-155.060
633,35720.630000,129.228,-11.043,246.784,241.064,-280.140,382.060,-405.780,53.400,-162.060
634,35720.670000,134.142,-2.008,244.736,243.000,-276.529,378.161,-248.780,14.400,-185.060
635,35720.710000,136.107,0.000,215.040,246.777,-276.576,373.193,-159.780,-96.600,-124.060
636,35720.751000,142.987,2.008,204.800,249.496,-284.862,369.042,-113.780,-186.600,-75.060
637,35720.790000,147.900,11.043,193.536,251.354,-286.787,363.036,-242.780,-218.600,-39.060
638,35720.830000,149.866,-17.067,205.824,256.058,-287.816,354.069,-344.780,-204.600,41.940
639,35720.850000,144.952,-34.133,195.584,254.939,-299.855,347.844,-279.780,-206.600,137.940
640,35720.890000,145.935,-35.137,191.488,255.840,-302.689,342.811,-151.780,-156.600,177.940
641,35720.930000,151.831,-39.153,190.464,252.048,-302.817,338.825,-124.780,-157.600,175.940
642,35720.970000,148.883,-36.141,192.512,250.925,-315.675,337.555,-14.780,-90.600,134.940
643,35721.10000,138.073,-36.141,185.344,252.918,-308.320,337.714,51.220,-17.600,36.940
644,35721.50000,126.280,-25.098,179.200,253.828,-311.037,338.652,163.220,-51.600,-50.060
645,35721.91000,116.453,-16.063,178.176,254.834,-307.243,344.702,268.220,-114.600,-20.060
646,35721.113000,121.367,-17.067,203.776,252.170,-294.454,344.970,292.220,-109.600,60.940
647,35721.153000,185.244,-12.047,198.656,255.038,-292.546,347.005,353.220,-82.600,177.940
648,35721.201000,205.881,-3.012,230.400,254.098,-292.480,350.983,157.220,46.400,161.940
649,35721.242000,209.812,3.012,238.592,248.486,-287.935,353.061,55.220,129.400,71.940
650,35721.271000,197.036,-2.008,241.664,242.706,-295.359,351.900,-84.780,175.400,-17.060
651,35721.311000,157.727,-26.102,222.208,244.636,-293.365,358.907,-119.780,116.400,-82.060
652,35721.331000,141.021,-15.059,208.896,247.481,-292.490,354.952,-62.780,76.400,-115.060
653,35721.378000,144.952,-7.027,193.536,247.418,-297.070,354.854,28.220,7.400,-126.060
654,35721.413000,134.142,-11.043,197.632,250.360,-289.665,357.005,-135.780,-27.600,-116.060
655,35721.458000,134.142,-10.039,202.752,249.331,-295.271,351.911,-201.780,-46.600,-83.060
656,35721.497000,134.142,-22.086,201.728,254.988,-296.210,346.927,-215.780,-68.600,1.940
657,35721.531000,135.125,-39.153,216.064,250.162,-302.764,342.801,-114.780,-57.600,66.940
658,35721.571000,136.107,-39.153,215.040,251.149,-299.964,344.852,44.220,-43.600,83.940
659,35721.591000,136.107,-35.137,212.992,249.221,-302.718,345.785,142.220,-88.600,71.940
660,35721.637000,169.520,-24.094,199.680,254.061,-295.228,350.925,325.220,-157.600,58.940
661,35721.674000,160.676,-12.047,194.560,252.191,-293.441,349.965,261.220,-287.600,-37.060
662,35721.711000,152.814,-2.008,209.920,264.504,-292.382,349.011,180.220,-294.600,-117.060
663,35721.751000,152.814,16.063,200.704,270.225,-288.720,345.119,5.220,-246.600,-175.060
664,35721.792000,156.745,0.000,203.776,276.955,-280.465,341.326,-56.780,-191.600,-144.060
665,35721.812000,162.641,-12.047,199.680,280.721,-281.410,337.333,-39.780,-180.600,-79.060
666,35721.852000,166.572,-13.051,188.416,278.755,-286.912,338.208,66.220,-212.600,-21.060
667,35721.892000,162.641,-20.078,183.296,285.448,-281.406,334.356,74.220,-217.600,30.940
668,35721.935000,160.676,-27.106,185.344,285.426,-283.199,336.307,173.220,-198.600,88.940
669,35721.973000,161.658,-36.141,197.632,288.295,-281.271,339.337,190.220,-129.600,125.940
670,35722.15000,166.572,-34.133,204.800,290.136,-284.930,338.267,230.220,-68.600,113.940
671,35722.55000,172.468,-39.153,203.776,291.280,-271.058,344.532,387.220,7.400,81.940
672,35722.75000,175.417,-14.055,181.248,291.368,-265.405,352.609,559.220,0.400,32.940
673,35722.116000,168.537,-3.012,172.032,292.389,-260.675,359.674,522.220,11.400,25.940
674,35722.150000,173.451,7.027,163.840,290.670,-248.654,366.890,573.220,21.400,15.940
675,35722.190000,166.572,45.176,152.576,294.646,-235.602,376.125,585.220,8.400,-5.060
676,35722.230000,107.608,27.106,130.048,297.643,-224.474,381.339,606.220,-129.600,44.940
677,35722.270000,238.311,69.271,225.280,294.856,-221.587,390.348,491.220,209.400,98.940
678,35722.303000,202.933,65.255,210.944,290.271,-211.475,395.530,292.220,105.400,-23.060
679,35722.331000,127.263,32.125,231.424,290.298,-210.383,404.505,235.220,202.400,-62.060
680,35722.371000,142.987,37.145,210.944,290.457,-198.512,402.769,204.220,-40.600,-73.060
681,35722.411000,199.002,27.106,156.672,296.034,-205.786,401.628,134.220,-181.600,5.940
682,35722.451000,169.520,17.067,145.408,296.153,-197.463,405.783,359.220,-77.600,140.940
683,35722.491000,192.123,22.086,191.488,295.351,-187.320,409.977,492.220,65.400,132.940
684,35722.518000,169.520,31.122,198.656,291.660,-180.879,414.087,448.220,122.400,98.940
685,35722.551000,169.520,46.180,190.464,288.896,-176.179,422.140,386.220,99.400,94.940
686,35722.591000,160.676,48.188,188.416,292.728,-173.283,427.180,253.220,35.400,39.940
687,35722.638000,138.073,46.180,176.128,291.856,-167.799,427.296,70.220,-132.600,-104.060
688,35722.671000,131.194,54.212,152.576,297.563,-165.073,422.389,-23.780,-267.600,-287.060
689,35722.712000,127.263,66.259,136.192,310.923,-155.893,414.647,-185.780,-370.600,-416.060
690,35722.761000,144.952,73.286,144.384,322.239,-157.751,405.673,-232.780,-320.600,-503.060
691,35722.773000,163.624,96.376,162.816,329.990,-143.987,401.998,-106.780,-257.600,-545.060
692,35722.813000,219.639,98.384,180.224,331.940,-139.440,399.114,-124.780,-109.600,-467.060
693,35722.853000,219.639,106.416,193.536,340.518,-134.766,398.232,10.220,25.400,-346.060
694,35722.891000,234.380,108.424,231.424,337.761,-129.229,402.324,121.220,132.400,-166.060
695,35722.938000,200.967,106.416,218.112,332.185,-121.955,403.465,282.220,109.400,34.940
696,35722.987000,156.745,102.400,198.656,331.261,-120.934,409.453,317.220,59.400,134.940
697,35722.993000,147.900,90.353,183.296,335.137,-114.432,411.587,296.220,-22.600,175.940
698,35723.33000,145.935,103.404,166.912,334.142,-118.090,412.502,310.220,-109.600,101.940
699,35723.73000,149.866,101.396,159.744,336.146,-109.839,411.686,126.220,-176.600,56.940
700,35723.116000,176.399,98.384,173.056,340.896,-108.023,407.753,-16.780,-206.600,-44.060
701,35723.156000,223.570,104.408,172.032,346.501,-112.645,401.695,-165.780,-191.600,-123.060
702,35723.196000,238.311,73.286,183.296,343.559,-120.051,399.544,-297.780,-23.600,-176.060
703,35723.243000,139.056,47.184,145.408,346.349,-123.658,400.466,-301.780,-39.600,-226.060
704,35723.251000,93.850,30.118,155.648,353.865,-127.282,397.416,-295.780,-160.600,-233.060
705,35723.296000,171.486,24.094,184.320,354.787,-128.322,390.433,-388.780,-40.600,-110.060
706,35723.336000,107.608,8.031,117.760,350.892,-135.818,384.300,-94.780,-172.600,107.940
707,35723.376000,148.883,-7.027,150.528,353.670,-140.342,385.202,29.220,-118.600,411.940
708,35723.411000,181.313,72.282,142.336,353.695,-138.509,385.241,335.220,-211.600,374.940
709,35723.451000,169.520,68.267,166.912,351.767,-140.484,379.228,181.220,-140.600,340.940
710,35723.471000,265.827,82.322,178.176,345.960,-150.539,383.979,-145.780,210.400,448.940
711,35723.511000,205.881,110.431,152.576,343.021,-157.905,383.818,-227.780,222.400,94.940
712,35723.551000,209.812,67.263,188.416,342.196,-149.575,388.967,80.220,202.400,-22.060
713,35723.592000,184.261,76.298,166.912,337.405,-154.179,390.851,57.220,93.400,-8.060
714,35723.632000,153.797,65.255,156.672,334.493,-159.694,391.724,65.220,19.400,-1.060
715,35723.682000,154.779,72.282,161.792,340.294,-150.477,390.934,-9.780,-50.600,10.940
716,35723.715000,153.797,76.298,172.032,337.366,-156.947,389.798,11.220,-14.600,62.940
717,35723.736000,156.745,82.322,172.032,339.301,-154.115,392.845,-9.780,-19.600,64.940
718,35723.776000,160.676,96.376,169.984,341.123,-158.768,387.775,-154.780,-75.600,-0.060
719,35723.817000,159.693,103.404,167.936,343.971,-157.854,385.810,-293.780,-218.600,-91.060
720,35723.856000,209.812,89.349,160.768,345.683,-169.953,374.614,-625.780,-257.600,-80.060
721,35723.893000,200.967,59.231,136.192,352.146,-180.216,360.480,-618.780,-260.600,-8.060
722,35723.933000,223.570,19.075,149.504,351.911,-196.824,354.158,-621.780,-169.600,73.940
723,35723.953000,149.866,-12.047,147.456,358.467,-200.615,343.146,-529.780,-191.600,113.940
724,35724.2000,141.021,-1.004,159.744,357.389,-209.867,338.969,-428.780,-28.600,135.940
725,35724.42000,182.296,6.024,187.392,347.721,-224.709,335.655,-356.780,45.400,184.940
726,35724.76000,199.002,21.082,178.176,347.694,-226.561,334.621,-248.780,75.400,158.940
727,35724.115000,195.071,19.075,194.560,341.886,-235.856,331.431,-236.780,83.400,133.940
728,35724.155000,186.226,-7.027,185.344,343.715,-240.431,330.341,-252.780,-2.600,159.940
729,35724.202000,181.313,2.008,159.744,337.037,-244.222,328.262,-103.780,-85.600,67.940
730,35724.217000,176.399,-2.008,155.648,338.864,-248.817,326.177,42.220,-80.600,31.940
731,35724.271000,163.624,18.071,156.672,339.001,-238.739,326.392,257.220,-97.600,9.940
732,35724.296000,151.831,18.071,144.384,338.980,-240.532,328.343,257.220,-127.600,22.940
733,35724.335000,179.347,6.024,138.240,344.692,-237.748,326.421,121.220,-161.600,74.940
734,35724.383000,172.468,9.035,177.152,340.921,-236.862,327.429,42.220,-51.600,150.940
735,35724.417000,251.086,1.004,169.984,335.129,-245.202,326.249,26.220,-82.600,172.940
736,35724.435000,246.173,12.047,147.456,336.051,-246.242,319.265,-1.780,-91.600,184.940
737,35724.477000,256.983,-3.012,188.416,335.119,-245.319,320.278,-169.780,-2.600,162.940
738,35724.517000,212.760,-2.008,177.152,335.967,-251.837,314.173,-225.780,1.400,48.940
739,35724.555000,199.002,-14.055,159.744,330.218,-257.369,316.036,-176.780,2.400,7.940
740,35724.595000,200.967,-5.020,162.816,331.082,-262.932,311.940,-258.780,56.400,27.940
741,35724.635000,179.347,-3.012,176.128,327.324,-261.130,312.968,-244.780,91.400,-17.060
742,35724.672000,156.745,7.027,160.768,331.015,-267.571,308.858,-41.780,53.400,-49.060
743,35724.692000,135.125,9.035,153.600,332.947,-264.778,309.915,72.220,-68.600,-9.060
744,35724.732000,191.140,-1.004,156.672,334.804,-267.482,310.854,76.220,-191.600,188.940
745,35724.772000,220.622,16.063,163.840,332.811,-274.836,310.695,-32.780,-117.600,170.940
746,35724.817000,214.726,2.008,182.272,333.810,-270.360,304.824,-179.780,-13.600,73.940
747,35724.855000,192.123,2.008,167.936,333.776,-272.290,299.810,-239.780,-17.600,-158.060
748,35724.895000,183.278,-6.024,156.672,333.776,-272.290,299.810,-211.780,-21.600,-217.060
749,35724.915000,198.019,-10.039,162.816,341.358,-271.293,298.847,-161.780,34.400,-135.060
750,35724.955000,195.071,0.000,163.840,342.241,-275.861,298.751,-28.780,15.400,-82.060
751,35724.997000,190.157,-4.016,167.936,342.252,-274.965,297.776,15.220,34.400,-69.060
752,35725.51000,180.330,-20.078,162.816,342.304,-271.281,298.849,42.220,8.400,-9.060
753,35725.73000,158.710,-19.075,161.792,344.189,-272.113,301.818,181.220,-50.600,64.940
754,35725.115000,204.898,-5.020,162.816,342.287,-273.015,303.785,310.220,-29.600,129.940
755,35725.155000,207.846,22.086,153.600,343.367,-263.744,308.957,398.220,-36.600,73.940
756,35725.175000,202.933,39.153,167.936,342.579,-252.665,314.165,352.220,61.400,-119.060
757,35725.225000,184.261,44.173,151.552,345.482,-248.028,315.263,-40.780,3.400,-211.060
758,35725.257000,181.313,8.031,171.008,344.470,-252.660,313.173,-166.780,38.400,-153.060
759,35725.298000,212.760,-2.008,167.936,348.179,-258.126,312.068,-82.780,50.400,-41.060
760,35725.333000,198.019,3.012,167.936,350.203,-248.862,316.247,77.220,31.400,21.940
761,35725.373000,183.278,13.051,172.032,345.518,-245.299,314.326,202.220,54.400,-3.060
762,35725.393000,184.261,11.043,169.984,344.592,-244.298,319.319,217.220,20.400,20.940
763,35725.438000,196.054,4.016,162.816,346.568,-238.678,324.415,246.220,-21.600,90.940
764,35725.473000,219.639,4.016,141.312,346.529,-241.446,323.362,285.220,-119.600,77.940
765,35725.513000,212.760,7.027,151.552,345.688,-234.071,326.501,104.220,-64.600,19.940
766,35725.553000,200.967,7.027,150.528,345.708,-232.297,323.555,88.220,-50.600,-77.060
767,35725.602000,204.898,-14.055,155.648,353.323,-229.371,327.607,29.220,-5.600,-129.060
768,35725.636000,194.088,-28.110,148.480,348.580,-230.330,328.574,119.220,36.400,-110.060
769,35725.656000,172.468,-41.161,146.432,351.474,-226.569,331.643,289.220,57.400,-72.060
770,35725.698000,167.555,-39.153,153.600,352.557,-217.259,338.805,609.220,86.400,-18.060
771,35725.738000,240.276,0.000,157.696,349.022,-200.526,354.075,870.220,183.400,5.940
772,35725.776000,178.365,76.298,166.912,352.135,-181.113,361.456,1108.220,229.400,-204.060
773,35725.816000,176.399,96.376,189.440,346.737,-162.514,379.747,832.220,342.400,-229.060
774,35725.856000,183.278,108.424,186.368,347.941,-144.861,392.060,602.220,276.400,-210.060
775,35725.896000,171.486,108.424,179.200,340.518,-134.766,398.232,448.220,199.400,-130.060
776,35725.916000,177.382,86.337,169.984,343.460,-127.360,400.383,353.220,12.400,-122.060
777,35725.956000,165.589,83.325,145.408,345.440,-120.923,400.523,308.220,-171.600,-70.060
778,35725.996000,169.520,80.314,129.024,356.929,-110.754,397.772,243.220,-295.600,-70.060
779,35726.36000,168.537,80.314,116.736,361.718,-106.169,394.893,197.220,-317.600,-114.060
780,35726.76000,169.520,86.337,115.712,369.317,-103.418,389.990,149.220,-270.600,-153.060
781,35726.132000,172.468,86.337,120.832,372.228,-97.923,388.122,-4.780,-182.600,-204.060
782,35726.147000,147.900,92.361,126.976,373.349,-85.085,388.397,-13.780,-141.600,-280.060
783,35726.175000,196.054,93.365,122.880,374.231,-88.912,379.365,-247.780,-80.600,-308.060
784,35726.213000,269.758,89.349,156.672,378.989,-86.998,380.407,-358.780,1.400,-343.060
785,35726.267000,254.035,66.259,195.584,377.084,-87.939,380.384,-180.780,184.400,-239.060
786,35726.295000,241.259,103.404,216.064,370.573,-80.541,388.489,158.220,407.400,-79.060
787,35726.335000,215.708,109.427,199.680,366.735,-85.055,394.355,239.220,367.400,-20.060
788,35726.376000,189.175,108.424,174.080,363.133,-72.181,399.597,357.220,227.400,90.940
789,35726.396000,171.486,114.447,161.792,359.446,-65.701,405.697,379.220,155.400,147.940
790,35726.440000,159.693,102.400,177.152,357.510,-69.313,409.596,326.220,114.400,209.940
791,35726.485000,162.641,106.416,163.840,352.942,-57.446,410.837,284.220,22.400,166.940
792,35726.518000,152.814,99.388,141.312,356.692,-60.125,411.780,185.220,-90.600,99.940
793,35726.558000,142.987,96.376,140.288,359.566,-57.359,410.848,139.220,-144.600,89.940
794,35726.600000,142.987,99.388,140.288,362.375,-59.212,407.829,118.220,-226.600,131.940
795,35726.624000,148.883,109.427,138.240,365.222,-58.317,404.868,107.220,-261.600,122.940
796,35726.658000,172.468,110.431,137.216,374.609,-62.929,396.827,-130.780,-376.600,161.940
797,35726.698000,213.743,126.494,136.192,380.183,-69.462,386.750,-283.780,-430.600,68.940
798,35726.737000,243.225,102.400,133.120,387.697,-73.104,382.705,-407.780,-364.600,14.940
799,35726.777000,255.017,89.349,136.192,391.348,-82.313,377.541,-350.780,-220.600,-120.060
800,35726.817000,243.225,82.322,129.024,390.397,-82.384,374.554,-312.780,-76.600,-161.060
801,35726.867000,164.607,69.271,141.312,392.258,-84.270,370.538,-307.780,53.400,-247.060
802,35726.875000,104.660,79.310,125.952,396.009,-86.929,372.477,-397.780,-20.600,-316.060
803,35726.925000,85.006,65.255,104.448,397.853,-89.789,365.456,-395.780,-108.600,-244.060
804,35726.957000,160.676,67.263,112.640,399.704,-92.551,363.411,-314.780,-208.600,40.940
805,35726.997000,178.365,89.349,133.120,402.417,-100.915,355.280,-111.780,-201.600,112.940
806,35727.46000,223.570,105.412,153.600,403.239,-110.064,355.086,-129.780,-26.600,133.940
807,35727.82000,300.223,130.510,194.560,400.350,-113.766,355.003,-348.780,-26.600,-11.060
808,35727.95000,208.829,109.427,149.504,395.592,-115.680,353.961,-309.780,20.400,-16.060
809,35727.135000,153.797,86.337,135.168,395.528,-119.501,345.922,-481.780,-184.600,145.940
810,35727.176000,155.762,94.369,130.048,401.914,-136.060,337.622,-513.780,-249.600,200.940
811,35727.216000,207.846,104.408,122.880,404.479,-155.398,330.252,-725.780,-270.600,102.940
812,35727.256000,181.313,80.314,103.424,404.330,-164.833,316.126,-704.780,-271.600,56.940
813,35727.296000,174.434,78.306,97.280,406.907,-182.494,300.834,-979.780,-295.600,20.940
814,35727.336000,233.397,38.149,126.976,406.754,-191.987,283.723,-1290.780,-257.600,90.940
815,35727.356000,206.864,-7.027,157.696,408.385,-209.642,269.425,-1185.780,-157.600,198.940
816,35727.396000,220.622,-44.173,211.968,400.418,-237.480,255.890,-1210.780,74.400,266.940
817,35727.436000,210.795,-57.224,197.632,396.507,-245.931,247.748,-702.780,153.400,222.940
818,35727.476000,209.812,-38.149,166.912,392.615,-253.388,243.605,-362.780,113.400,73.940
819,35727.517000,199.985,-31.122,153.600,394.483,-255.196,243.569,49.220,-0.600,79.940
820,35727.557000,190.157,-8.031,113.664,393.515,-257.001,245.518,289.220,-197.600,65.940
821,35727.577000,180.330,0.000,88.064,394.531,-251.551,242.652,269.220,-343.600,82.940
822,35727.617000,187.209,11.043,98.304,396.317,-258.933,238.519,195.220,-301.600,98.940
823,35727.660000,171.486,9.035,109.568,400.222,-249.780,235.736,106.220,-281.600,111.940
824,35727.701000,243.225,18.071,135.168,395.362,-259.043,233.542,42.220,-91.600,113.940
825,35727.744000,295.309,25.098,140.288,395.316,-262.668,235.454,-13.780,-41.600,213.940
826,35727.777000,270.741,27.106,152.576,390.647,-258.150,235.543,-265.780,74.400,31.940
827,35727.817000,243.225,6.024,171.008,391.480,-265.623,227.428,-568.780,143.400,-108.060
828,35727.845000,229.466,-22.086,171.008,391.455,-267.455,227.389,-409.780,207.400,-55.060
829,35727.876000,208.829,-18.071,150.528,387.616,-271.209,225.314,-160.780,86.400,7.940
830,35727.921000,191.140,-14.055,156.672,387.479,-281.286,225.100,-21.780,29.400,160.940
831,35727.961000,188.192,-10.039,150.528,383.679,-282.272,224.079,-28.780,-11.600,202.940
832,35728.1000,193.106,-9.035,137.216,381.794,-281.439,221.110,-25.780,-112.600,196.940
833,35728.38000,195.071,-10.039,137.216,378.789,-293.426,218.861,35.220,-127.600,249.940
834,35728.58000,195.071,-14.055,131.072,375.051,-289.850,216.942,148.220,-122.600,236.940
835,35728.105000,198.019,-28.110,137.216,373.115,-293.461,220.841,265.220,-118.600,279.940
836,35728.138000,194.088,-47.184,142.336,366.419,-299.007,222.702,316.220,-90.600,306.940
837,35728.178000,222.587,-67.263,123.904,360.723,-300.836,226.633,412.220,-146.600,371.940
838,35728.218000,236.345,-45.176,120.832,364.491,-302.521,231.576,608.220,-196.600,349.940
839,35728.261000,216.691,-43.169,140.288,358.823,-302.479,237.537,455.220,-156.600,208.940
840,35728.301000,233.397,-34.133,141.312,360.807,-296.002,239.667,333.220,-202.600,14.940
841,35728.321000,215.708,-51.200,131.072,364.560,-298.641,242.600,213.220,-181.600,-67.060
842,35728.361000,206.864,-46.180,118.784,368.426,-292.257,238.763,171.220,-120.600,-76.060
843,35728.401000,200.967,-49.192,113.664,371.368,-284.851,240.914,212.220,-27.600,-95.060
844,35728.436000,205.881,-47.184,106.496,374.315,-277.387,246.051,354.220,19.400,-129.060
845,35728.481000,194.088,-44.173,110.592,374.510,-264.327,258.265,736.220,74.400,-169.060
846,35728.516000,205.881,-7.027,100.352,374.613,-257.738,267.357,972.220,36.400,-207.060
847,35728.536000,229.466,49.192,147.456,381.565,-235.332,284.753,895.220,215.400,-273.060
848,35728.578000,235.363,78.306,195.584,376.112,-220.456,299.981,684.220,433.400,-333.060
849,35728.618000,204.898,58.227,159.744,379.141,-208.196,316.160,546.220,284.400,-310.060
850,35728.662000,206.864,45.176,144.384,379.336,-194.357,321.428,472.220,160.400,-254.060
851,35728.696000,196.054,49.192,129.024,385.989,-192.398,323.469,352.220,-80.600,-192.060
852,35728.738000,206.864,51.200,129.024,388.975,-182.166,329.659,328.220,-86.600,-138.060
853,35728.778000,202.933,61.239,118.784,394.777,-172.949,328.869,293.220,-70.600,-179.060
854,35728.798000,217.674,61.239,120.832,396.846,-160.079,330.141,317.220,-59.600,-181.060
855,35728.838000,229.466,54.212,114.688,399.811,-150.860,331.336,445.220,-63.600,-136.060
856,35728.878000,219.639,66.259,128.000,398.029,-143.439,337.459,542.220,56.400,-103.060
857,35728.918000,222.587,85.333,130.048,395.307,-135.173,340.615,452.220,110.400,-136.060
858,35728.958000,207.846,87.341,142.336,400.199,-124.000,346.828,246.220,132.400,-136.060
859,35728.998000,199.002,77.302,133.120,396.431,-123.075,349.826,224.220,225.400,-51.060
860,35729.18000,196.054,77.302,128.000,392.750,-116.517,359.906,27.220,275.400,-28.060
861,35729.58000,168.537,63.247,126.976,387.013,-121.134,361.789,-116.780,235.400,-14.060
862,35729.98000,173.451,59.231,118.784,386.100,-119.216,366.802,-230.780,229.400,-48.060
863,35729.155000,173.451,57.224,118.784,381.333,-122.008,367.730,-271.780,199.400,-56.060
864,35729.186000,152.814,60.235,117.760,380.313,-127.497,368.606,-246.780,175.400,-91.060
865,35729.224000,154.779,63.247,115.712,376.442,-133.941,369.458,-248.780,156.400,-133.060
866,35729.257000,144.952,76.298,133.120,375.557,-129.392,368.559,-294.780,25.400,-211.060
867,35729.282000,209.812,84.329,142.336,377.458,-128.490,366.591,-405.780,-17.600,-287.060
868,35729.322000,268.775,98.384,149.504,379.327,-129.518,359.610,-465.780,-64.600,-301.060
869,35729.362000,280.568,97.380,200.704,381.129,-135.945,357.486,-245.780,143.400,-176.060
870,35729.415000,286.464,107.420,223.232,378.359,-131.324,361.559,-28.780,369.400,-64.060
871,35729.442000,244.207,109.427,217.088,366.114,-128.504,373.537,180.220,393.400,70.940
872,35729.482000,199.985,102.400,163.840,362.280,-132.978,381.393,370.220,330.400,171.940
873,35729.502000,173.451,83.325,150.528,359.487,-130.170,386.422,422.220,255.400,272.940
874,35729.540000,142.004,59.231,118.784,354.711,-134.598,397.262,316.220,83.400,322.940
875,35729.580000,131.194,64.251,147.456,345.348,-127.394,397.401,373.220,83.400,295.940
876,35729.618000,135.125,60.235,150.528,345.333,-129.109,403.332,278.220,63.400,280.940
877,35729.659000,140.038,66.259,163.840,343.423,-130.109,400.324,124.220,11.400,225.940
878,35729.702000,174.434,74.290,166.912,341.576,-127.288,405.355,34.220,25.400,159.940
879,35729.742000,174.434,82.322,185.344,341.548,-129.159,403.326,-135.780,53.400,75.940
880,35729.762000,192.123,83.325,191.488,337.612,-140.203,403.085,-287.780,-5.600,60.940
881,35729.802000,183.278,81.318,185.344,341.289,-147.579,397.960,-439.780,-88.600,54.940
882,35729.842000,168.537,74.290,182.272,342.031,-161.504,387.718,-519.780,-254.600,31.940
883,35729.882000,176.399,65.255,160.768,341.909,-169.866,381.572,-510.780,-275.600,13.940
884,35729.922000,203.916,49.192,130.048,350.359,-173.614,371.559,-501.780,-326.600,-7.060
885,35729.961000,181.313,37.145,113.664,353.969,-185.629,363.351,-330.780,-188.600,-40.060
886,35730.2000,184.261,66.259,136.192,355.790,-190.283,358.282,-310.780,-88.600,-122.060
887,35730.22000,204.898,48.188,112.640,357.665,-191.232,355.280,-499.780,-58.600,-101.060
888,35730.62000,202.933,52.204,146.432,357.511,-201.505,345.115,-624.780,75.400,-65.060
889,35730.100000,206.864,45.176,145.408,351.711,-209.942,338.959,-594.780,27.400,-38.060
890,35730.143000,193.106,35.137,148.480,351.628,-215.537,333.867,-698.780,49.400,-40.060
891,35730.183000,177.382,-7.027,209.920,344.724,-235.058,323.495,-846.780,156.400,35.940
892,35730.223000,196.054,-30.118,214.016,345.642,-236.917,321.467,-499.780,220.400,14.940
893,35730.243000,188.192,0.000,191.488,336.969,-248.861,325.179,-209.780,247.400,16.940
894,35730.283000,158.710,12.047,151.552,335.941,-254.448,321.080,-178.780,90.400,47.940
895,35730.323000,160.676,14.055,138.240,334.110,-249.912,320.179,-198.780,-51.600,79.940
896,35730.363000,167.555,4.016,132.096,333.973,-259.210,313.019,-275.780,-67.600,181.940
897,35730.402000,170.503,-38.149,132.096,328.148,-269.480,306.824,-222.780,-80.600,338.940
898,35730.441000,191.140,-25.098,172.032,322.393,-275.071,305.701,-96.780,-30.600,355.940
899,35730.483000,276.637,-11.043,187.392,318.580,-276.992,303.666,-16.780,22.400,342.940
900,35730.503000,220.622,-1.004,185.344,319.212,-299.903,302.184,-222.780,47.400,203.940
901,35730.541000,205.881,-8.031,191.488,311.697,-295.500,298.288,-328.780,37.400,112.940
902,35730.580000,196.054,-16.063,200.704,308.762,-302.048,293.171,-286.780,97.400,48.940
903,35730.618000,171.486,-20.078,194.560,307.846,-300.170,296.194,-97.780,180.400,-11.060
904,35730.658000,156.745,-22.086,173.056,305.034,-298.356,297.223,43.220,151.400,-46.060
905,35730.698000,142.004,-17.067,159.744,306.955,-296.459,299.256,155.220,94.400,-6.060
906,35730.720000,139.056,-22.086,156.672,305.120,-292.722,304.306,264.220,5.400,51.940
907,35730.760000,128.246,-25.098,143.360,305.204,-287.128,309.398,486.220,-94.600,118.940
908,35730.800000,113.505,-27.106,122.880,300.461,-288.867,317.311,620.220,-249.600,271.940
909,35730.841000,140.038,-26.102,137.216,301.574,-276.886,320.552,604.220,-239.600,404.940
910,35730.881000,258.948,-19.075,159.744,292.155,-274.184,324.574,681.220,-102.600,454.940
911,35730.928000,306.119,26.102,207.872,290.299,-272.240,331.575,347.220,92.400,360.940
912,35730.961000,313.981,35.137,215.040,283.714,-270.340,339.563,166.220,180.400,110.940
913,35730.983000,235.363,3.012,210.944,279.905,-272.202,340.512,-245.780,240.400,-172.060
914,35731.23000,210.795,-14.055,220.160,277.972,-275.015,338.460,-381.780,296.400,-193.060
915,35731.63000,191.140,-16.063,205.824,276.056,-276.852,339.413,-308.780,274.400,-140.060
916,35731.108000,168.537,-7.027,185.344,274.086,-282.394,338.297,-302.780,247.400,-2.060
917,35731.143000,149.866,-14.055,181.248,267.307,-293.533,335.066,-247.780,178.400,67.940
918,35731.183000,129.228,-8.031,163.840,266.363,-293.526,336.060,-198.780,31.400,80.940
919,35731.203000,130.211,-19.075,153.600,264.297,-305.578,329.832,-168.780,-60.600,93.940
920,35731.243000,146.917,-49.192,152.576,266.149,-308.341,327.787,-227.780,-122.600,198.940
921,35731.283000,151.831,-42.165,157.696,264.252,-308.424,324.798,-160.780,-171.600,205.940
922,35731.323000,162.641,-47.184,173.056,262.263,-314.960,319.683,-200.780,-182.600,164.940
923,35731.371000,187.209,-57.224,189.440,263.173,-316.916,312.680,-142.780,-178.600,90.940
924,35731.398000,205.881,-65.255,188.416,268.806,-319.668,308.652,-78.780,-200.600,21.940
925,35731.443000,193.106,-55.216,190.464,271.583,-324.211,308.559,-56.780,-188.600,-63.060
926,35731.463000,188.192,-34.133,177.152,278.205,-324.143,307.576,-30.780,-150.600,-233.060
927,35731.503000,175.417,-26.102,176.128,289.690,-314.013,302.835,-12.780,-161.600,-310.060
928,35731.543000,172.468,-40.157,173.056,295.393,-312.106,302.884,-34.780,-135.600,-286.060
929,35731.591000,170.503,-37.145,148.480,302.131,-303.753,304.066,170.220,-162.600,-220.060
930,35731.624000,176.399,-45.176,150.528,307.875,-299.059,306.164,280.220,-134.600,-198.060
931,35731.667000,173.451,-23.090,151.552,309.923,-287.981,309.387,505.220,-38.600,-102.060
932,35731.680000,169.520,5.020,141.312,313.789,-283.136,320.437,714.220,-34.600,-78.060
933,35731.731000,170.503,19.075,142.336,313.023,-271.024,331.634,818.220,-20.600,-37.060
934,35731.765000,215.708,45.176,209.920,315.113,-257.920,344.846,771.220,144.400,-7.060
935,35731.811000,208.829,43.169,205.824,311.596,-239.432,356.176,595.220,195.400,-48.060
936,35731.852000,191.140,25.098,200.704,309.817,-231.972,364.289,495.220,81.400,-126.060
937,35731.882000,164.607,15.059,174.080,313.641,-229.154,365.349,478.220,-151.600,-139.060
938,35731.922000,180.330,29.114,147.456,321.452,-211.609,367.724,438.220,-287.600,-194.060
939,35731.942000,209.812,19.075,130.048,333.928,-198.640,367.023,354.220,-361.600,-257.060
940,35731.988000,206.864,9.035,130.048,339.677,-193.107,365.160,344.220,-334.600,-254.060
941,35732.22000,212.760,14.055,149.504,348.447,-174.633,367.556,494.220,-222.600,-201.060
942,35732.72000,191.140,14.055,144.384,352.290,-170.061,364.675,491.220,-81.600,-154.060
943,35732.100000,181.313,58.227,156.672,353.389,-159.795,373.847,517.220,19.400,-155.060
944,35732.141000,183.278,81.318,149.504,357.368,-145.925,378.126,295.220,17.400,-260.060
945,35732.161000,183.278,85.333,146.432,359.288,-144.048,379.164,97.220,-26.600,-328.060
946,35732.202000,175.417,79.310,138.240,367.050,-129.388,374.514,-33.780,-134.600,-358.060
947,35732.241000,158.710,77.302,115.712,369.932,-125.764,370.617,-121.780,-266.600,-360.060
948,35732.281000,166.572,77.302,108.544,379.421,-123.027,363.727,-260.780,-310.600,-390.060
949,35732.321000,165.589,86.337,109.568,386.080,-119.450,354.861,-310.780,-274.600,-407.060
950,35732.361000,202.933,97.380,116.736,395.605,-113.985,347.034,-280.780,-259.600,-396.060
951,35732.408000,227.501,105.412,126.976,398.350,-120.438,342.922,-218.780,-174.600,-337.060
952,35732.421000,235.363,103.404,122.880,406.028,-112.152,340.126,-131.780,-191.600,-252.060
953,35732.462000,260.914,119.467,162.816,406.969,-112.198,337.143,25.220,-84.600,-185.060
954,35732.501000,260.914,140.549,176.128,408.894,-109.483,334.219,14.220,64.400,-185.060
955,35732.541000,259.931,127.498,198.656,403.285,-104.899,338.287,-77.780,234.400,-177.060
956,35732.581000,262.879,53.208,167.936,404.256,-103.834,345.274,-282.780,314.400,-73.060
957,35732.621000,135.125,32.125,101.376,397.613,-105.676,349.203,-13.780,106.400,-69.060
958,35732.666000,87.954,32.125,119.808,397.585,-107.547,347.174,13.220,-39.600,-3.060
959,35732.691000,140.038,44.173,184.320,398.538,-107.456,351.156,-230.780,194.400,80.940
960,35732.723000,55.524,36.141,83.968,402.138,-120.349,344.919,-356.780,-205.600,154.940
961,35732.765000,222.587,58.227,125.952,401.182,-120.479,338.947,-54.780,-107.600,195.940
962,35732.806000,246.173,79.310,151.552,402.976,-127.763,339.789,-38.780,-87.600,161.940
963,35732.841000,228.484,108.424,193.536,397.303,-127.780,342.765,274.220,176.400,196.940
964,35732.881000,243.225,122.478,179.200,389.809,-123.143,350.809,347.220,293.400,280.940
965,35732.906000,222.587,110.431,157.696,384.150,-122.224,354.799,333.220,236.400,227.940
966,35732.946000,185.244,81.318,159.744,380.337,-124.905,360.704,294.220,174.400,282.940
967,35732.996000,161.658,79.310,153.600,375.639,-123.038,365.710,206.220,65.400,310.940
968,35733.25000,144.952,65.255,145.408,376.487,-130.335,366.551,148.220,17.400,317.940
969,35733.65000,139.056,75.294,147.456,372.657,-133.991,369.451,148.220,-14.600,254.940
970,35733.102000,148.883,92.361,162.816,370.761,-134.055,367.458,-57.780,-70.600,163.940
971,35733.150000,172.468,102.400,164.864,370.560,-147.953,359.205,-239.780,-158.600,133.940
972,35733.162000,219.639,98.384,184.320,374.201,-158.059,355.016,-513.780,-273.600,171.940
973,35733.203000,228.484,62.243,154.624,382.620,-163.716,340.983,-422.780,-502.600,119.940
974,35733.243000,223.570,42.165,151.552,381.577,-170.239,335.870,-189.780,-380.600,212.940
975,35733.283000,200.967,31.122,119.808,389.951,-179.503,324.744,-198.780,-458.600,322.940
976,35733.322000,167.555,12.047,98.304,388.900,-186.123,314.655,-164.780,-368.600,341.940
977,35733.371000,209.812,19.075,96.256,387.728,-201.866,306.361,-141.780,-305.600,331.940
978,35733.383000,234.380,30.118,105.472,387.709,-202.860,302.362,-136.780,-163.600,330.940
979,35733.432000,233.397,32.125,124.928,387.611,-210.170,303.201,-169.780,-32.600,187.940
980,35733.466000,203.916,26.102,147.456,384.613,-221.298,297.986,-261.780,63.400,143.940
981,35733.503000,199.985,18.071,132.096,377.950,-224.154,296.921,-326.780,147.400,152.940
982,35733.542000,216.691,16.063,135.168,377.792,-235.245,291.711,-492.780,67.400,159.940
983,35733.582000,213.743,-1.004,135.168,371.927,-248.283,284.463,-444.780,-69.600,212.940
984,35733.622000,211.777,-7.027,141.312,368.044,-254.863,278.349,-436.780,-95.600,258.940
985,35733.642000,207.846,-24.094,143.360,369.904,-256.767,273.338,-320.780,-151.600,188.940
986,35733.682000,208.829,-23.090,141.312,365.868,-274.380,265.000,-285.780,-155.600,137.940
987,35733.722000,217.674,-33.129,134.144,367.793,-271.665,262.077,-228.780,-195.600,111.940
988,35733.771000,219.639,-38.149,132.096,370.517,-279.132,252.970,-126.780,-192.600,67.940
989,35733.806000,217.674,-27.106,130.048,374.299,-279.122,250.987,59.220,-194.600,-4.060
990,35733.843000,227.501,-21.082,126.976,372.504,-271.837,250.145,132.220,-175.600,-81.060
991,35733.863000,218.656,-22.086,123.904,382.037,-266.274,247.293,242.220,-193.600,-152.060
992,35733.903000,220.622,-3.012,110.592,382.023,-267.209,246.279,288.220,-223.600,-193.060
993,35733.943000,232.415,8.031,112.640,389.794,-252.451,246.604,224.220,-200.600,-219.060
994,35733.983000,220.622,13.051,113.664,394.599,-246.911,245.735,185.220,-210.600,-259.060
995,35734.23000,222.587,5.020,98.304,401.234,-245.927,244.771,242.220,-198.600,-243.060
996,35734.63000,231.432,15.059,97.280,406.169,-231.168,247.081,322.220,-98.600,-225.060
997,35734.103000,242.242,27.106,91.136,405.277,-227.457,250.143,345.220,-11.600,-210.060
998,35734.123000,231.432,24.094,99.328,408.301,-214.477,256.392,265.220,24.400,-188.060
999,35734.163000,226.518,27.106,106.496,412.138,-210.743,257.471,239.220,53.400,-113.060
1000,35734.203000,226.518,34.133,103.424,414.089,-206.955,262.528,320.220,49.400,-73.060
1001,35734.243000,230.449,41.161,103.424,412.178,-208.735,266.466,311.220,75.400,-46.060
1002,35734.287000,224.553,43.169,104.448,411.351,-200.424,270.620,362.220,57.400,2.940
1003,35734.327000,219.639,46.180,109.568,411.348,-201.223,276.571,386.220,19.400,60.940
1004,35734.347000,218.656,39.153,107.520,410.546,-191.080,280.764,365.220,-18.600,90.940
1005,35734.386000,224.553,47.184,112.640,411.487,-191.905,284.727,319.220,-8.600,72.940
1006,35734.426000,218.656,47.184,119.808,410.567,-190.066,285.759,255.220,-6.600,47.940
1007,35734.466000,220.622,64.251,118.784,406.873,-183.664,287.879,176.220,12.400,-21.060
1008,35734.505000,213.743,56.220,118.784,409.697,-184.562,286.869,-37.780,-1.600,-33.060
1009,35734.547000,216.691,57.224,115.712,413.394,-190.945,285.744,-281.780,-62.600,-123.060
1010,35734.587000,219.639,52.204,115.712,412.482,-187.468,276.865,-375.780,-64.600,-130.060
1011,35734.607000,221.605,34.133,112.640,416.252,-188.374,274.862,-256.780,-54.600,-100.060
1012,35734.647000,225.536,22.086,110.592,416.214,-191.122,274.804,-93.780,-9.600,-37.060
1013,35734.687000,227.501,40.157,109.568,413.424,-187.514,273.882,-26.780,67.400,-7.060
1014,35734.724000,220.622,17.067,113.664,411.420,-195.765,274.698,-127.780,103.400,40.940
1015,35734.765000,223.570,18.071,121.856,409.629,-188.442,275.846,-164.780,188.400,30.940
1016,35734.805000,223.570,21.082,118.784,404.854,-192.090,279.740,-148.780,354.400,-24.060
1017,35734.833000,220.622,17.067,122.880,402.934,-194.747,285.648,-83.780,436.400,-60.060
1018,35734.868000,218.656,34.133,128.000,395.380,-194.652,295.585,8.220,462.400,-169.060
1019,35734.902000,208.829,54.212,130.048,393.603,-187.172,304.694,75.220,408.400,-212.060
1020,35734.942000,207.846,56.220,128.000,393.550,-191.636,310.566,-64.780,265.400,-232.060
1021,35734.982000,204.898,49.192,131.072,391.809,-180.647,311.792,-155.780,180.400,-264.060
1022,35735.22000,206.864,53.208,139.264,393.752,-176.958,311.874,2.220,23.400,-187.060
1023,35735.62000,210.795,53.208,128.000,395.605,-179.701,310.823,-39.780,-59.600,-74.060
1024,35735.82000,206.864,54.212,125.952,397.555,-175.154,307.939,65.220,-114.600,34.940
1025,35735.127000,207.846,51.200,126.976,398.480,-176.934,309.892,44.220,-134.600,92.940
1026,35735.163000,211.777,37.145,119.808,399.391,-178.871,303.884,38.220,-221.600,93.940
1027,35735.204000,218.656,38.149,124.928,400.311,-180.711,302.852,186.220,-106.600,2.940
1028,35735.244000,212.760,50.196,141.312,399.506,-170.607,305.055,160.220,31.400,-73.060
1029,35735.285000,205.881,58.227,137.216,404.212,-172.376,305.024,154.220,-5.600,-89.060
1030,35735.324000,214.726,51.200,117.760,406.217,-164.106,305.203,64.220,-29.600,-49.060
1031,35735.345000,212.760,59.231,126.976,406.116,-171.455,304.052,-9.780,-36.600,-23.060
